Wavelength (nm)	Intensity
377.35	800.00
377.48	580.11
377.62	603.44
377.75	611.78
377.88	811.11
378.02	791.22
378.15	796.33
378.28	775.22
378.41	840.22
378.55	804.78
378.68	793.11
378.81	773.78
378.95	796.44
379.08	780.89
379.21	762.22
379.35	820.00
379.48	811.33
379.61	872.11
379.74	798.44
379.88	777.33
380.01	847.00
380.14	899.22
380.28	841.22
380.41	770.22
380.54	811.00
380.68	824.67
380.81	746.00
380.94	816.11
381.07	858.89
381.21	858.67
381.34	796.00
381.47	742.56
381.61	928.33
381.74	803.44
381.87	771.89
382.00	821.56
382.14	883.33
382.27	834.33
382.40	767.56
382.54	857.56
382.67	857.00
382.80	768.89
382.93	777.78
383.07	802.22
383.20	797.22
383.33	828.56
383.47	781.44
383.60	756.56
383.73	929.33
383.86	824.89
384.00	794.44
384.13	788.22
384.26	830.44
384.40	846.00
384.53	803.78
384.66	858.78
384.79	813.11
384.93	783.78
385.06	788.44
385.19	813.33
385.33	910.56
385.46	828.00
385.59	780.11
385.72	816.67
385.86	754.89
385.99	787.44
386.12	795.11
386.25	765.00
386.39	832.67
386.52	852.22
386.65	790.89
386.79	787.00
386.92	783.11
387.05	867.11
387.18	756.56
387.32	769.33
387.45	828.44
387.58	804.33
387.71	790.44
387.85	780.44
387.98	811.22
388.11	820.44
388.25	818.44
388.38	800.44
388.51	831.56
388.64	836.00
388.78	785.00
388.91	763.56
389.04	795.33
389.17	891.78
389.31	807.11
389.44	834.00
389.57	857.78
389.70	831.56
389.84	788.67
389.97	783.78
390.10	786.33
390.24	822.22
390.37	797.78
390.50	781.22
390.63	861.78
390.77	797.44
390.90	805.00
391.03	797.78
391.16	753.78
391.30	780.78
391.43	785.11
391.56	788.00
391.69	769.22
391.83	844.00
391.96	803.33
392.09	784.78
392.22	880.78
392.36	816.22
392.49	770.67
392.62	797.89
392.75	819.33
392.89	856.33
393.02	769.56
393.15	770.89
393.28	751.67
393.42	880.78
393.55	759.89
393.68	783.67
393.81	735.33
393.95	782.44
394.08	779.56
394.21	778.78
394.34	837.67
394.48	827.11
394.61	828.56
394.74	815.44
394.87	841.89
395.01	819.56
395.14	832.11
395.27	783.00
395.40	886.67
395.54	894.67
395.67	800.44
395.80	788.89
395.93	825.22
396.07	778.33
396.20	775.44
396.33	735.00
396.46	778.00
396.59	801.56
396.73	792.56
396.86	769.22
396.99	853.11
397.12	811.33
397.26	807.33
397.39	798.89
397.52	1071.89
397.65	897.33
397.79	806.67
397.92	791.67
398.05	843.11
398.18	777.11
398.32	791.11
398.45	819.67
398.58	814.56
398.71	817.00
398.84	762.44
398.98	799.44
399.11	830.78
399.24	821.56
399.37	787.33
399.51	768.89
399.64	797.78
399.77	799.22
399.90	800.00
400.03	805.78
400.17	759.89
400.30	852.89
400.43	829.22
400.56	800.11
400.70	794.67
400.83	776.56
400.96	769.56
401.09	806.11
401.23	804.22
401.36	854.89
401.49	783.11
401.62	799.56
401.75	793.00
401.89	771.11
402.02	788.44
402.15	801.56
402.28	809.78
402.41	808.56
402.55	781.56
402.68	793.11
402.81	866.11
402.94	839.11
403.08	787.33
403.21	762.11
403.34	827.11
403.47	833.56
403.60	790.67
403.74	825.00
403.87	839.00
404.00	775.44
404.13	780.00
404.26	761.33
404.40	761.89
404.53	806.67
404.66	795.78
404.79	765.22
404.93	835.22
405.06	811.33
405.19	750.00
405.32	806.00
405.45	818.89
405.59	834.33
405.72	799.11
405.85	772.00
405.98	959.78
406.11	773.56
406.25	773.11
406.38	785.33
406.51	815.56
406.64	790.78
406.77	760.00
406.91	752.33
407.04	817.11
407.17	793.33
407.30	812.00
407.43	794.89
407.57	869.44
407.70	849.56
407.83	768.44
407.96	805.89
408.09	759.56
408.23	877.44
408.36	798.11
408.49	787.67
408.62	910.22
408.75	811.22
408.89	774.67
409.02	813.78
409.15	799.44
409.28	869.22
409.41	824.22
409.55	784.00
409.68	913.22
409.81	814.56
409.94	774.33
410.07	808.00
410.20	804.22
410.34	791.78
410.47	799.78
410.60	811.67
410.73	832.33
410.86	768.78
411.00	802.11
411.13	772.44
411.26	804.67
411.39	801.67
411.52	818.00
411.66	783.00
411.79	782.56
411.92	768.00
412.05	794.89
412.18	788.78
412.31	818.44
412.45	835.44
412.58	839.11
412.71	763.44
412.84	816.33
412.97	870.22
413.11	806.00
413.24	808.22
413.37	834.67
413.50	890.11
413.63	816.11
413.76	789.00
413.90	827.44
414.03	783.56
414.16	785.67
414.29	821.44
414.42	801.67
414.56	904.11
414.69	779.67
414.82	798.78
414.95	799.67
415.08	818.78
415.21	794.22
415.35	817.78
415.48	728.22
415.61	843.56
415.74	844.22
415.87	764.00
416.00	812.78
416.14	913.00
416.27	808.00
416.40	775.00
416.53	795.56
416.66	826.00
416.79	800.33
416.93	768.22
417.06	856.44
417.19	803.11
417.32	792.33
417.45	786.67
417.58	754.00
417.72	847.11
417.85	780.89
417.98	796.33
418.11	834.22
418.24	783.89
418.37	789.78
418.51	801.00
418.64	807.33
418.77	870.44
418.90	812.67
419.03	763.44
419.16	807.78
419.29	838.33
419.43	780.00
419.56	761.44
419.69	899.33
419.82	844.11
419.95	794.11
420.08	844.89
420.22	864.67
420.35	916.78
420.48	846.44
420.61	794.67
420.74	746.89
420.87	831.00
421.00	768.00
421.14	790.89
421.27	836.00
421.40	863.22
421.53	814.11
421.66	796.67
421.79	800.00
421.93	799.89
422.06	804.44
422.19	780.56
422.32	841.22
422.45	837.89
422.58	811.56
422.71	787.67
422.85	844.67
422.98	842.89
423.11	757.78
423.24	754.33
423.37	768.44
423.50	775.33
423.63	797.89
423.77	776.22
423.90	769.56
424.03	815.00
424.16	831.44
424.29	797.00
424.42	746.89
424.55	769.89
424.69	771.11
424.82	804.22
424.95	810.89
425.08	769.44
425.21	818.44
425.34	785.78
425.47	800.44
425.60	809.67
425.74	755.11
425.87	788.44
426.00	785.22
426.13	804.78
426.26	774.22
426.39	780.44
426.52	788.56
426.66	861.67
426.79	821.67
426.92	771.22
427.05	894.89
427.18	864.11
427.31	793.56
427.44	789.00
427.57	766.22
427.71	797.56
427.84	764.11
427.97	799.22
428.10	852.44
428.23	808.11
428.36	784.22
428.49	717.22
428.62	930.00
428.76	897.89
428.89	812.67
429.02	751.78
429.15	794.89
429.28	897.22
429.41	779.00
429.54	796.22
429.67	785.00
429.81	822.78
429.94	795.89
430.07	789.56
430.20	848.00
430.33	859.56
430.46	764.67
430.59	767.89
430.72	797.89
430.85	756.89
430.99	793.44
431.12	766.00
431.25	854.33
431.38	871.56
431.51	802.00
431.64	803.33
431.77	872.22
431.90	867.78
432.03	801.67
432.17	770.44
432.30	808.33
432.43	818.00
432.56	800.78
432.69	822.00
432.82	804.67
432.95	851.67
433.08	801.78
433.21	805.11
433.35	792.11
433.48	795.56
433.61	767.78
433.74	794.44
433.87	778.22
434.00	832.78
434.13	778.56
434.26	831.67
434.39	820.22
434.53	833.67
434.66	797.56
434.79	790.22
434.92	784.22
435.05	861.00
435.18	783.11
435.31	817.00
435.44	857.33
435.57	806.00
435.70	799.89
435.84	772.00
435.97	863.89
436.10	901.44
436.23	783.33
436.36	768.00
436.49	794.11
436.62	819.11
436.75	788.44
436.88	819.00
437.01	774.11
437.14	768.89
437.28	752.67
437.41	782.56
437.54	861.67
437.67	834.44
437.80	776.56
437.93	751.78
438.06	908.78
438.19	842.89
438.32	765.11
438.45	768.33
438.58	820.11
438.72	867.78
438.85	836.33
438.98	788.89
439.11	814.44
439.24	863.67
439.37	860.44
439.50	830.22
439.63	848.56
439.76	791.67
439.89	777.22
440.02	781.56
440.15	826.89
440.29	858.78
440.42	801.89
440.55	795.67
440.68	869.67
440.81	911.56
440.94	806.67
441.07	804.67
441.20	892.33
441.33	822.44
441.46	788.22
441.59	785.11
441.72	799.33
441.85	807.33
441.99	837.11
442.12	835.78
442.25	884.89
442.38	829.44
442.51	819.89
442.64	757.56
442.77	801.56
442.90	784.89
443.03	765.56
443.16	783.89
443.29	805.44
443.42	868.89
443.55	787.78
443.68	808.22
443.82	753.22
443.95	790.33
444.08	787.22
444.21	803.67
444.34	777.11
444.47	797.67
444.60	795.56
444.73	815.67
444.86	803.33
444.99	857.44
445.12	821.44
445.25	815.22
445.38	815.00
445.51	841.44
445.64	809.89
445.78	787.00
445.91	753.33
446.04	908.78
446.17	849.00
446.30	750.00
446.43	821.11
446.56	806.33
446.69	773.56
446.82	780.00
446.95	841.11
447.08	853.78
447.21	812.89
447.34	785.33
447.47	845.22
447.60	842.00
447.73	806.33
447.86	837.11
447.99	806.22
448.13	814.78
448.26	834.00
448.39	792.11
448.52	828.67
448.65	837.78
448.78	801.78
448.91	793.33
449.04	830.11
449.17	785.11
449.30	821.44
449.43	819.22
449.56	798.00
449.69	852.22
449.82	800.67
449.95	755.67
450.08	851.78
450.21	825.89
450.34	805.11
450.47	794.33
450.60	831.44
450.73	807.89
450.87	788.89
451.00	814.00
451.13	836.89
451.26	946.67
451.39	790.11
451.52	820.89
451.65	792.00
451.78	788.33
451.91	782.56
452.04	774.11
452.17	884.33
452.30	876.33
452.43	788.00
452.56	785.67
452.69	851.22
452.82	767.89
452.95	836.22
453.08	776.22
453.21	729.78
453.34	843.00
453.47	782.56
453.60	843.00
453.73	886.78
453.86	826.67
453.99	819.78
454.12	811.67
454.25	796.44
454.38	813.56
454.52	770.33
454.65	790.56
454.78	776.89
454.91	753.22
455.04	784.33
455.17	766.11
455.30	772.78
455.43	852.33
455.56	791.22
455.69	760.00
455.82	825.00
455.95	818.89
456.08	762.00
456.21	764.00
456.34	749.78
456.47	740.11
456.60	782.56
456.73	768.78
456.86	785.67
456.99	825.33
457.12	774.00
457.25	781.33
457.38	859.44
457.51	832.33
457.64	809.11
457.77	785.89
457.90	793.22
458.03	779.89
458.16	788.67
458.29	796.22
458.42	783.89
458.55	741.78
458.68	772.56
458.81	786.56
458.94	858.67
459.07	895.89
459.20	753.89
459.33	770.22
459.46	856.33
459.59	891.44
459.72	854.11
459.85	789.33
459.98	871.33
460.11	831.44
460.24	807.78
460.37	760.00
460.50	834.00
460.63	798.22
460.76	783.44
460.89	799.78
461.02	825.22
461.15	831.00
461.28	796.67
461.41	788.89
461.54	869.67
461.67	768.89
461.80	800.89
461.93	842.44
462.06	817.78
462.19	848.00
462.32	781.22
462.45	780.44
462.58	826.22
462.71	784.33
462.84	799.89
462.97	738.22
463.10	786.78
463.23	807.89
463.36	833.11
463.49	809.56
463.62	753.78
463.75	818.89
463.88	786.00
464.01	807.33
464.14	758.44
464.27	884.00
464.40	791.67
464.53	793.33
464.66	827.56
464.79	819.78
464.92	810.78
465.05	770.78
465.18	801.78
465.31	798.56
465.44	798.00
465.57	780.00
465.70	785.67
465.83	896.89
465.96	809.22
466.09	779.22
466.22	833.78
466.35	816.00
466.48	781.33
466.61	776.22
466.74	788.89
466.87	843.33
467.00	828.11
467.13	819.22
467.26	836.00
467.39	756.00
467.52	754.89
467.65	785.56
467.78	859.11
467.91	799.78
468.04	802.78
468.17	782.33
468.30	785.11
468.43	751.78
468.56	767.67
468.69	816.11
468.82	833.44
468.95	766.89
469.08	786.78
469.21	795.67
469.34	828.33
469.47	895.56
469.60	874.56
469.73	808.33
469.86	811.56
469.99	843.11
470.11	771.56
470.24	775.33
470.37	831.56
470.50	805.67
470.63	776.78
470.76	795.67
470.89	844.44
471.02	907.89
471.15	785.11
471.28	794.56
471.41	892.89
471.54	815.11
471.67	787.67
471.80	736.78
471.93	839.33
472.06	814.89
472.19	790.89
472.32	770.89
472.45	898.56
472.58	841.44
472.71	807.11
472.84	779.78
472.97	776.67
473.10	758.44
473.23	837.22
473.36	757.44
473.49	850.44
473.62	834.67
473.74	822.00
473.87	837.56
474.00	771.56
474.13	773.33
474.26	811.67
474.39	835.00
474.52	799.89
474.65	783.22
474.78	795.11
474.91	753.33
475.04	816.44
475.17	910.56
475.30	825.78
475.43	814.00
475.56	847.67
475.69	793.00
475.82	832.00
475.95	775.78
476.08	865.89
476.21	800.33
476.34	831.56
476.46	836.11
476.59	856.78
476.72	786.44
476.85	793.56
476.98	766.56
477.11	847.89
477.24	804.00
477.37	749.00
477.50	785.22
477.63	810.11
477.76	770.78
477.89	746.44
478.02	762.22
478.15	793.44
478.28	786.11
478.41	821.33
478.54	781.78
478.66	838.00
478.79	790.67
478.92	789.56
479.05	791.33
479.18	803.22
479.31	772.22
479.44	780.33
479.57	772.11
479.70	782.56
479.83	805.00
479.96	786.78
480.09	819.11
480.22	935.67
480.35	913.78
480.48	842.44
480.60	804.22
480.73	780.44
480.86	822.00
480.99	792.00
481.12	796.33
481.25	798.78
481.38	857.00
481.51	790.11
481.64	805.00
481.77	825.22
481.90	796.89
482.03	799.11
482.16	786.00
482.29	849.67
482.41	804.11
482.54	829.00
482.67	781.11
482.80	796.11
482.93	839.56
483.06	773.00
483.19	857.44
483.32	821.00
483.45	799.67
483.58	809.78
483.71	835.44
483.84	835.44
483.97	819.44
484.09	799.78
484.22	784.44
484.35	768.56
484.48	750.33
484.61	780.22
484.74	783.11
484.87	812.78
485.00	756.33
485.13	813.78
485.26	762.33
485.39	821.00
485.52	794.11
485.64	863.56
485.77	824.56
485.90	860.33
486.03	762.22
486.16	813.67
486.29	768.33
486.42	798.78
486.55	808.78
486.68	790.00
486.81	821.56
486.94	809.00
487.06	787.67
487.19	832.11
487.32	816.44
487.45	802.44
487.58	780.00
487.71	795.67
487.84	761.22
487.97	829.00
488.10	840.11
488.23	786.67
488.35	747.67
488.48	788.11
488.61	758.78
488.74	779.56
488.87	777.89
489.00	808.44
489.13	884.33
489.26	831.89
489.39	826.89
489.52	838.56
489.64	825.00
489.77	804.22
489.90	806.33
490.03	796.89
490.16	785.33
490.29	782.33
490.42	777.78
490.55	805.44
490.68	767.22
490.81	782.89
490.93	752.89
491.06	855.89
491.19	821.44
491.32	813.00
491.45	831.11
491.58	756.56
491.71	801.33
491.84	790.67
491.97	780.22
492.09	852.33
492.22	825.22
492.35	808.00
492.48	837.56
492.61	815.56
492.74	800.11
492.87	813.56
493.00	803.56
493.12	770.56
493.25	796.33
493.38	799.00
493.51	773.00
493.64	755.67
493.77	800.22
493.90	825.11
494.03	819.33
494.16	854.78
494.28	863.56
494.41	794.78
494.54	799.00
494.67	905.89
494.80	866.00
494.93	794.44
495.06	825.44
495.19	824.44
495.31	806.44
495.44	788.33
495.57	774.89
495.70	819.00
495.83	794.11
495.96	768.89
496.09	809.00
496.22	867.89
496.34	892.78
496.47	797.89
496.60	826.00
496.73	843.78
496.86	846.00
496.99	777.22
497.12	801.56
497.24	747.00
497.37	800.44
497.50	791.33
497.63	772.89
497.76	795.89
497.89	857.00
498.02	831.89
498.15	726.67
498.27	802.67
498.40	853.89
498.53	868.89
498.66	826.00
498.79	848.67
498.92	764.11
499.05	824.78
499.17	800.89
499.30	838.00
499.43	882.44
499.56	829.56
499.69	755.89
499.82	818.44
499.95	782.78
500.07	781.11
500.20	806.11
500.33	841.00
500.46	934.22
500.59	815.56
500.72	805.78
500.85	860.00
500.97	849.33
501.10	846.78
501.23	773.89
501.36	812.44
501.49	868.56
501.62	829.11
501.75	814.00
501.87	852.78
502.00	757.89
502.13	823.11
502.26	823.89
502.39	790.11
502.52	791.89
502.64	750.11
502.77	774.00
502.90	832.11
503.03	807.56
503.16	781.44
503.29	780.44
503.42	857.67
503.54	813.56
503.67	809.44
503.80	807.89
503.93	843.56
504.06	773.11
504.19	805.89
504.31	859.22
504.44	813.56
504.57	824.22
504.70	820.44
504.83	759.67
504.96	819.33
505.08	803.67
505.21	812.78
505.34	904.33
505.47	853.56
505.60	841.56
505.73	852.78
505.85	846.33
505.98	931.11
506.11	800.89
506.24	771.22
506.37	769.00
506.50	815.11
506.62	842.22
506.75	787.00
506.88	774.33
507.01	815.22
507.14	761.56
507.27	791.67
507.39	768.11
507.52	779.00
507.65	791.56
507.78	825.89
507.91	775.67
508.04	856.56
508.16	857.89
508.29	821.33
508.42	789.89
508.55	773.33
508.68	778.00
508.81	849.00
508.93	788.33
509.06	790.00
509.19	833.89
509.32	830.44
509.45	822.22
509.57	823.33
509.70	774.22
509.83	806.00
509.96	764.78
510.09	809.78
510.22	800.00
510.34	804.78
510.47	802.33
510.60	899.11
510.73	818.11
510.86	823.00
510.98	789.67
511.11	784.11
511.24	844.89
511.37	835.22
511.50	805.33
511.63	816.11
511.75	812.00
511.88	810.00
512.01	831.11
512.14	806.56
512.27	814.00
512.39	806.67
512.52	796.89
512.65	811.78
512.78	774.00
512.91	813.11
513.03	807.89
513.16	839.78
513.29	816.22
513.42	795.11
513.55	767.78
513.67	819.00
513.80	756.56
513.93	782.89
514.06	787.78
514.19	824.33
514.31	814.22
514.44	842.78
514.57	799.67
514.70	810.89
514.83	849.89
514.95	785.33
515.08	815.33
515.21	831.78
515.34	800.11
515.47	807.67
515.59	774.89
515.72	819.00
515.85	830.56
515.98	862.11
516.11	820.78
516.23	842.00
516.36	867.56
516.49	822.67
516.62	814.44
516.75	864.78
516.87	861.11
517.00	786.78
517.13	835.78
517.26	848.56
517.39	826.56
517.51	752.00
517.64	808.89
517.77	881.00
517.90	773.00
518.02	803.44
518.15	779.11
518.28	730.00
518.41	800.67
518.54	810.22
518.66	817.44
518.79	774.33
518.92	791.33
519.05	774.78
519.18	797.78
519.30	830.67
519.43	768.00
519.56	779.78
519.69	792.11
519.81	851.67
519.94	795.78
520.07	744.44
520.20	783.33
520.33	809.67
520.45	860.78
520.58	817.11
520.71	834.56
520.84	852.00
520.96	816.33
521.09	806.33
521.22	783.33
521.35	836.22
521.48	836.78
521.60	783.33
521.73	806.78
521.86	858.11
521.99	880.67
522.11	822.33
522.24	804.00
522.37	832.11
522.50	818.22
522.62	856.78
522.75	749.67
522.88	814.22
523.01	785.44
523.14	830.89
523.26	819.44
523.39	875.56
523.52	784.67
523.65	884.22
523.77	837.33
523.90	805.33
524.03	796.11
524.16	798.11
524.28	785.11
524.41	794.22
524.54	803.67
524.67	768.89
524.79	797.78
524.92	825.78
525.05	871.33
525.18	771.89
525.31	845.56
525.43	772.89
525.56	910.22
525.69	783.44
525.82	747.44
525.94	840.56
526.07	841.00
526.20	829.78
526.33	836.11
526.45	920.56
526.58	890.89
526.71	826.22
526.84	799.44
526.96	814.22
527.09	775.11
527.22	793.78
527.35	801.89
527.47	763.44
527.60	865.56
527.73	773.89
527.86	839.67
527.98	826.00
528.11	830.89
528.24	771.22
528.37	799.67
528.49	756.56
528.62	801.67
528.75	835.56
528.88	785.22
529.00	828.44
529.13	849.44
529.26	813.78
529.39	838.67
529.51	930.33
529.64	900.00
529.77	782.33
529.90	795.11
530.02	793.11
530.15	776.22
530.28	744.22
530.40	777.00
530.53	803.78
530.66	831.56
530.79	791.33
530.91	805.44
531.04	788.44
531.17	800.33
531.30	803.11
531.42	806.67
531.55	810.56
531.68	856.67
531.81	778.44
531.93	798.22
532.06	809.22
532.19	768.89
532.31	798.78
532.44	790.78
532.57	827.11
532.70	776.67
532.82	810.89
532.95	836.56
533.08	867.33
533.21	832.89
533.33	776.00
533.46	783.67
533.59	794.22
533.71	904.67
533.84	818.11
533.97	789.78
534.10	786.33
534.22	771.00
534.35	801.33
534.48	812.89
534.61	829.89
534.73	743.00
534.86	770.33
534.99	824.22
535.11	859.22
535.24	815.33
535.37	776.00
535.50	768.22
535.62	775.44
535.75	859.67
535.88	805.89
536.00	774.44
536.13	786.78
536.26	787.78
536.39	784.33
536.51	753.78
536.64	815.78
536.77	795.89
536.89	797.00
537.02	808.67
537.15	820.22
537.28	800.67
537.40	815.67
537.53	783.00
537.66	847.67
537.78	813.89
537.91	767.00
538.04	775.44
538.17	837.78
538.29	821.00
538.42	873.33
538.55	859.44
538.67	834.44
538.80	782.89
538.93	816.67
539.05	806.44
539.18	859.11
539.31	829.44
539.44	814.33
539.56	733.11
539.69	789.11
539.82	784.89
539.94	764.22
540.07	770.89
540.20	859.22
540.32	775.11
540.45	797.44
540.58	786.33
540.71	844.22
540.83	761.11
540.96	790.33
541.09	802.89
541.21	874.00
541.34	857.78
541.47	773.11
541.59	803.00
541.72	872.22
541.85	938.56
541.98	852.00
542.10	804.44
542.23	820.11
542.36	911.00
542.48	810.44
542.61	795.78
542.74	773.22
542.86	790.00
542.99	799.33
543.12	777.00
543.24	813.56
543.37	753.78
543.50	791.11
543.62	784.44
543.75	791.33
543.88	788.67
544.01	818.78
544.13	831.67
544.26	832.22
544.39	781.00
544.51	782.44
544.64	764.56
544.77	825.44
544.89	786.89
545.02	810.89
545.15	787.33
545.27	885.33
545.40	851.78
545.53	832.11
545.65	824.22
545.78	739.44
545.91	760.00
546.03	791.33
546.16	801.56
546.29	784.89
546.41	763.89
546.54	790.00
546.67	777.33
546.79	831.67
546.92	878.11
547.05	751.44
547.17	802.44
547.30	770.56
547.43	822.00
547.56	767.00
547.68	801.56
547.81	757.78
547.94	819.33
548.06	793.00
548.19	771.89
548.32	859.11
548.44	808.44
548.57	820.78
548.70	843.11
548.82	840.00
548.95	828.44
549.08	798.89
549.20	791.11
549.33	886.22
549.45	809.56
549.58	787.78
549.71	752.89
549.83	841.44
549.96	764.33
550.09	804.44
550.21	778.11
550.34	807.11
550.47	786.67
550.59	785.44
550.72	730.78
550.85	791.44
550.97	857.56
551.10	783.44
551.23	799.11
551.35	861.11
551.48	806.78
551.61	789.33
551.73	774.00
551.86	858.11
551.99	861.11
552.11	796.56
552.24	840.89
552.37	805.33
552.49	770.33
552.62	786.44
552.75	827.00
552.87	776.33
553.00	780.11
553.12	811.00
553.25	788.33
553.38	819.11
553.50	847.11
553.63	796.89
553.76	745.44
553.88	798.67
554.01	785.67
554.14	794.78
554.26	843.00
554.39	870.00
554.52	796.67
554.64	801.22
554.77	787.11
554.89	828.78
555.02	844.00
555.15	814.89
555.27	802.11
555.40	801.00
555.53	858.33
555.65	798.33
555.78	771.22
555.91	829.89
556.03	867.67
556.16	771.11
556.29	804.78
556.41	858.22
556.54	857.33
556.66	804.22
556.79	789.56
556.92	797.78
557.04	812.22
557.17	784.00
557.30	784.22
557.42	787.22
557.55	794.67
557.67	819.44
557.80	797.78
557.93	804.11
558.05	800.67
558.18	775.00
558.31	806.78
558.43	836.00
558.56	812.22
558.68	797.67
558.81	776.78
558.94	790.11
559.06	900.78
559.19	781.78
559.32	778.33
559.44	761.67
559.57	797.22
559.69	771.22
559.82	771.78
559.95	775.56
560.07	782.11
560.20	728.44
560.33	797.44
560.45	808.78
560.58	755.56
560.70	798.22
560.83	762.11
560.96	777.89
561.08	788.44
561.21	816.00
561.33	762.89
561.46	754.56
561.59	835.22
561.71	788.78
561.84	809.22
561.97	762.33
562.09	830.33
562.22	771.44
562.34	772.00
562.47	826.00
562.60	815.67
562.72	790.78
562.85	801.67
562.97	790.00
563.10	785.44
563.23	765.56
563.35	770.56
563.48	806.89
563.60	795.56
563.73	818.22
563.86	749.33
563.98	768.56
564.11	789.00
564.23	793.78
564.36	851.00
564.49	802.56
564.61	845.56
564.74	799.56
564.86	776.11
564.99	832.33
565.12	822.89
565.24	846.78
565.37	833.89
565.49	838.78
565.62	853.78
565.75	835.11
565.87	767.22
566.00	921.89
566.12	849.67
566.25	806.11
566.38	833.22
566.50	804.22
566.63	836.56
566.75	794.44
566.88	771.67
567.01	765.78
567.13	787.22
567.26	793.11
567.38	772.11
567.51	834.67
567.64	772.33
567.76	826.89
567.89	807.00
568.01	763.44
568.14	755.44
568.26	802.33
568.39	804.00
568.52	793.11
568.64	822.56
568.77	787.33
568.89	776.67
569.02	777.78
569.15	789.33
569.27	789.44
569.40	805.33
569.52	822.67
569.65	780.22
569.77	785.78
569.90	756.78
570.03	746.78
570.15	854.33
570.28	782.44
570.40	784.56
570.53	785.00
570.66	847.78
570.78	835.89
570.91	806.44
571.03	757.44
571.16	794.67
571.28	748.78
571.41	738.67
571.54	735.56
571.66	737.11
571.79	764.78
571.91	767.56
572.04	750.11
572.16	792.44
572.29	815.56
572.42	770.11
572.54	801.00
572.67	770.78
572.79	814.11
572.92	798.89
573.04	821.11
573.17	840.78
573.29	803.67
573.42	778.44
573.55	822.22
573.67	810.89
573.80	788.89
573.92	760.56
574.05	800.33
574.17	836.67
574.30	793.78
574.43	785.67
574.55	776.33
574.68	796.22
574.80	775.44
574.93	783.33
575.05	762.22
575.18	778.33
575.30	779.22
575.43	821.89
575.56	843.44
575.68	806.67
575.81	781.78
575.93	765.33
576.06	811.67
576.18	827.44
576.31	784.56
576.43	773.33
576.56	884.22
576.69	843.89
576.81	808.44
576.94	778.33
577.06	794.78
577.19	822.22
577.31	795.22
577.44	811.44
577.56	833.78
577.69	800.11
577.82	810.33
577.94	780.67
578.07	749.67
578.19	815.00
578.32	825.44
578.44	774.22
578.57	778.33
578.69	832.56
578.82	808.00
578.94	827.33
579.07	843.56
579.19	829.78
579.32	813.22
579.45	811.67
579.57	789.22
579.70	759.78
579.82	811.67
579.95	783.67
580.07	862.56
580.20	787.78
580.32	804.67
580.45	830.33
580.57	830.11
580.70	828.00
580.82	817.89
580.95	829.67
581.08	765.22
581.20	842.67
581.33	786.67
581.45	811.11
581.58	798.56
581.70	808.00
581.83	722.89
581.95	807.78
582.08	818.67
582.20	782.33
582.33	801.78
582.45	775.00
582.58	777.00
582.70	806.22
582.83	776.44
582.95	796.11
583.08	829.78
583.21	839.67
583.33	812.44
583.46	780.11
583.58	752.67
583.71	816.00
583.83	814.11
583.96	806.78
584.08	827.89
584.21	820.56
584.33	813.56
584.46	789.89
584.58	761.11
584.71	831.33
584.83	827.00
584.96	798.89
585.08	773.33
585.21	887.33
585.33	860.78
585.46	826.22
585.58	834.89
585.71	777.89
585.83	800.44
585.96	834.67
586.08	817.78
586.21	815.56
586.33	835.00
586.46	763.11
586.59	822.11
586.71	767.44
586.84	823.11
586.96	811.89
587.09	750.56
587.21	781.56
587.34	838.78
587.46	794.00
587.59	757.11
587.71	786.11
587.84	777.22
587.96	744.00
588.09	755.44
588.21	813.56
588.34	785.11
588.46	814.67
588.59	777.11
588.71	815.56
588.84	807.89
588.96	792.44
589.09	875.22
589.21	796.22
589.34	775.78
589.46	796.56
589.59	802.11
589.71	843.89
589.84	754.67
589.96	767.33
590.09	792.22
590.21	824.56
590.34	806.78
590.46	808.78
590.59	783.44
590.71	794.89
590.84	836.89
590.96	772.33
591.09	813.11
591.21	808.33
591.34	777.67
591.46	786.67
591.59	847.67
591.71	822.00
591.83	788.44
591.96	749.00
592.08	775.78
592.21	826.44
592.33	807.22
592.46	792.78
592.58	810.22
592.71	827.11
592.83	878.67
592.96	829.67
593.08	841.44
593.21	763.11
593.33	755.56
593.46	785.44
593.58	786.89
593.71	833.33
593.83	845.11
593.96	769.56
594.08	902.00
594.21	789.89
594.33	785.56
594.46	769.00
594.58	754.33
594.71	732.44
594.83	808.11
594.96	795.67
595.08	948.00
595.20	834.67
595.33	812.00
595.45	772.33
595.58	878.00
595.70	811.11
595.83	783.00
595.95	804.22
596.08	805.22
596.20	756.33
596.33	749.67
596.45	796.33
596.58	764.44
596.70	752.11
596.83	782.67
596.95	782.56
597.08	799.33
597.20	758.33
597.32	776.33
597.45	810.44
597.57	785.89
597.70	823.67
597.82	785.22
597.95	798.89
598.07	798.00
598.20	799.11
598.32	795.89
598.45	791.33
598.57	833.44
598.70	847.33
598.82	779.11
598.94	784.33
599.07	841.22
599.19	792.00
599.32	785.67
599.44	715.00
599.57	828.89
599.69	810.11
599.82	785.11
599.94	764.78
600.07	835.78
600.19	813.56
600.31	772.78
600.44	831.78
600.56	902.22
600.69	884.22
600.81	779.44
600.94	784.33
601.06	797.44
601.19	824.00
601.31	834.89
601.44	755.11
601.56	847.00
601.68	824.78
601.81	805.22
601.93	800.00
602.06	815.00
602.18	757.78
602.31	790.78
602.43	855.11
602.56	821.78
602.68	790.89
602.80	796.00
602.93	813.11
603.05	778.11
603.18	805.89
603.30	760.11
603.43	764.78
603.55	794.22
603.68	808.78
603.80	804.11
603.92	798.56
604.05	775.44
604.17	779.67
604.30	757.44
604.42	786.22
604.55	794.22
604.67	826.11
604.79	773.33
604.92	784.11
605.04	783.44
605.17	781.56
605.29	785.33
605.42	771.44
605.54	857.56
605.66	803.22
605.79	812.11
605.91	791.33
606.04	796.56
606.16	776.78
606.29	810.67
606.41	760.78
606.53	785.78
606.66	748.89
606.78	786.89
606.91	779.56
607.03	774.00
607.16	772.67
607.28	760.22
607.40	800.44
607.53	814.56
607.65	759.33
607.78	764.22
607.90	791.33
608.03	891.89
608.15	805.56
608.27	813.89
608.40	752.78
608.52	809.78
608.65	792.00
608.77	823.22
608.89	800.56
609.02	866.78
609.14	871.22
609.27	814.89
609.39	834.44
609.52	778.22
609.64	739.67
609.76	775.44
609.89	785.89
610.01	847.22
610.14	825.22
610.26	790.67
610.38	758.00
610.51	834.89
610.63	786.22
610.76	760.33
610.88	813.33
611.01	849.11
611.13	885.11
611.25	833.89
611.38	766.44
611.50	786.44
611.63	815.44
611.75	808.00
611.87	814.67
612.00	778.00
612.12	832.11
612.25	781.78
612.37	770.78
612.49	850.89
612.62	833.78
612.74	861.89
612.87	802.11
612.99	797.11
613.11	743.78
613.24	782.00
613.36	784.00
613.49	803.44
613.61	796.67
613.73	783.44
613.86	832.33
613.98	770.67
614.11	821.11
614.23	830.67
614.35	841.56
614.48	837.78
614.60	805.78
614.72	785.89
614.85	812.56
614.97	806.33
615.10	801.33
615.22	790.11
615.34	812.00
615.47	850.11
615.59	771.67
615.72	796.78
615.84	813.89
615.96	773.56
616.09	875.78
616.21	794.44
616.34	781.56
616.46	788.44
616.58	821.11
616.71	819.78
616.83	832.00
616.95	826.44
617.08	823.11
617.20	795.11
617.33	755.44
617.45	783.89
617.57	812.00
617.70	800.78
617.82	777.00
617.95	798.22
618.07	857.44
618.19	821.56
618.32	806.11
618.44	777.67
618.56	760.33
618.69	734.22
618.81	747.33
618.94	822.89
619.06	792.00
619.18	785.67
619.31	756.56
619.43	759.33
619.55	816.44
619.68	815.00
619.80	761.11
619.92	802.00
620.05	916.00
620.17	849.78
620.30	801.78
620.42	810.22
620.54	839.00
620.67	785.00
620.79	808.22
620.91	813.56
621.04	857.89
621.16	782.56
621.29	771.22
621.41	747.00
621.53	778.11
621.66	783.89
621.78	778.56
621.90	832.33
622.03	889.89
622.15	812.33
622.27	795.67
622.40	802.33
622.52	771.44
622.64	777.00
622.77	750.11
622.89	811.44
623.02	829.22
623.14	813.00
623.26	828.00
623.39	807.00
623.51	843.67
623.63	781.44
623.76	764.56
623.88	848.78
624.00	798.89
624.13	766.67
624.25	769.89
624.37	754.44
624.50	839.67
624.62	816.89
624.75	761.78
624.87	756.78
624.99	810.89
625.12	780.67
625.24	789.78
625.36	863.22
625.49	821.33
625.61	817.22
625.73	807.56
625.86	837.89
625.98	794.22
626.10	776.67
626.23	758.33
626.35	809.00
626.47	786.89
626.60	762.11
626.72	775.11
626.84	776.56
626.97	810.33
627.09	789.33
627.21	795.56
627.34	892.78
627.46	878.89
627.58	798.11
627.71	812.44
627.83	829.56
627.95	762.67
628.08	803.33
628.20	813.00
628.32	743.67
628.45	721.00
628.57	731.22
628.69	769.11
628.82	802.00
628.94	846.33
629.06	794.33
629.19	781.00
629.31	827.56
629.43	764.89
629.56	810.22
629.68	795.44
629.80	831.78
629.93	758.22
630.05	770.11
630.17	762.44
630.30	784.22
630.42	766.78
630.54	817.33
630.67	794.67
630.79	767.89
630.91	906.67
631.04	815.33
631.16	808.33
631.28	801.89
631.41	772.00
631.53	759.44
631.65	802.11
631.78	814.89
631.90	789.00
632.02	791.78
632.14	719.67
632.27	848.22
632.39	798.11
632.51	776.78
632.64	842.89
632.76	798.67
632.88	775.89
633.01	800.67
633.13	787.56
633.25	798.00
633.38	890.11
633.50	748.11
633.62	745.22
633.75	739.00
633.87	725.89
633.99	804.33
634.11	751.00
634.24	779.11
634.36	782.00
634.48	779.22
634.61	784.44
634.73	814.44
634.85	772.78
634.98	770.22
635.10	774.78
635.22	793.89
635.35	895.00
635.47	808.11
635.59	783.11
635.71	809.00
635.84	835.67
635.96	775.67
636.08	826.44
636.21	769.22
636.33	802.78
636.45	789.00
636.58	765.78
636.70	741.89
636.82	811.56
636.94	772.33
637.07	749.11
637.19	820.22
637.31	819.56
637.44	821.00
637.56	742.89
637.68	802.00
637.81	803.56
637.93	802.22
638.05	759.11
638.17	833.22
638.30	888.56
638.42	786.22
638.54	768.67
638.67	786.22
638.79	789.78
638.91	768.33
639.03	784.78
639.16	778.56
639.28	787.78
639.40	793.44
639.53	770.89
639.65	817.89
639.77	782.00
639.89	793.44
640.02	788.67
640.14	800.00
640.26	758.67
640.39	811.44
640.51	765.89
640.63	808.78
640.75	831.11
640.88	790.22
641.00	770.67
641.12	756.22
641.24	864.33
641.37	785.33
641.49	763.22
641.61	880.67
641.74	767.22
641.86	808.78
641.98	756.67
642.10	802.00
642.23	805.78
642.35	774.56
642.47	801.78
642.60	799.33
642.72	817.11
642.84	736.67
642.96	752.67
643.09	751.67
643.21	749.22
643.33	757.00
643.45	760.44
643.58	825.89
643.70	859.67
643.82	779.67
643.94	782.78
644.07	794.44
644.19	799.56
644.31	797.78
644.44	793.78
644.56	776.11
644.68	751.67
644.80	756.22
644.93	754.89
645.05	758.56
645.17	798.78
645.29	794.44
645.42	802.78
645.54	784.11
645.66	807.89
645.78	785.89
645.91	768.00
646.03	808.78
646.15	855.33
646.27	772.11
646.40	795.56
646.52	815.44
646.64	824.00
646.76	778.22
646.89	736.22
647.01	815.89
647.13	803.78
647.25	818.00
647.38	771.89
647.50	754.67
647.62	822.89
647.74	744.56
647.87	758.89
647.99	791.78
648.11	810.11
648.23	782.00
648.36	738.00
648.48	844.56
648.60	793.56
648.72	763.78
648.85	753.89
648.97	830.00
649.09	809.33
649.21	772.67
649.34	803.33
649.46	812.11
649.58	796.89
649.70	814.11
649.83	769.00
649.95	801.78
650.07	819.22
650.19	822.67
650.32	797.33
650.44	838.22
650.56	806.56
650.68	772.56
650.81	780.11
650.93	772.89
651.05	843.22
651.17	763.44
651.29	802.89
651.42	785.11
651.54	815.56
651.66	762.56
651.78	759.89
651.91	813.89
652.03	898.44
652.15	812.33
652.27	769.11
652.40	795.78
652.52	777.22
652.64	795.56
652.76	769.22
652.88	881.78
653.01	792.22
653.13	753.67
653.25	732.00
653.37	812.00
653.50	825.22
653.62	809.78
653.74	745.44
653.86	823.00
653.98	817.22
654.11	767.78
654.23	781.00
654.35	767.67
654.47	897.00
654.60	778.22
654.72	777.78
654.84	756.22
654.96	821.56
655.08	780.56
655.21	810.11
655.33	784.33
655.45	830.78
655.57	794.44
655.70	785.11
655.82	828.56
655.94	858.67
656.06	818.33
656.18	752.11
656.31	837.44
656.43	816.00
656.55	762.89
656.67	779.89
656.79	786.56
656.92	834.00
657.04	806.00
657.16	776.11
657.28	895.56
657.40	803.33
657.53	823.22
657.65	782.22
657.77	839.67
657.89	836.89
658.01	780.56
658.14	761.78
658.26	818.11
658.38	777.33
658.50	755.44
658.62	752.44
658.75	898.44
658.87	822.89
658.99	811.44
659.11	756.78
659.23	829.56
659.36	887.44
659.48	838.11
659.60	822.22
659.72	801.56
659.84	791.67
659.97	814.11
660.09	827.22
660.21	911.11
660.33	841.78
660.45	742.11
660.58	722.67
660.70	767.56
660.82	780.11
660.94	750.11
661.06	791.67
661.19	840.56
661.31	824.11
661.43	794.22
661.55	789.00
661.67	823.89
661.80	854.22
661.92	788.44
662.04	796.00
662.16	791.89
662.28	841.89
662.40	793.56
662.53	796.67
662.65	808.56
662.77	764.78
662.89	805.56
663.01	770.11
663.14	791.22
663.26	807.56
663.38	793.00
663.50	759.67
663.62	771.89
663.74	794.00
663.87	777.89
663.99	797.00
664.11	805.11
664.23	896.67
664.35	785.67
664.48	767.67
664.60	777.22
664.72	781.33
664.84	754.67
664.96	781.33
665.08	835.89
665.21	801.78
665.33	815.56
665.45	741.00
665.57	788.67
665.69	865.33
665.81	791.33
665.94	757.22
666.06	754.89
666.18	806.56
666.30	783.11
666.42	771.11
666.54	799.56
666.67	811.44
666.79	760.11
666.91	822.67
667.03	778.33
667.15	747.44
667.27	781.78
667.40	759.00
667.52	778.22
667.64	823.89
667.76	772.67
667.88	756.22
668.00	816.33
668.13	829.78
668.25	757.56
668.37	762.22
668.49	778.22
668.61	825.67
668.73	787.89
668.85	798.78
668.98	807.11
669.10	793.78
669.22	770.89
669.34	787.89
669.46	829.11
669.58	779.56
669.71	797.78
669.83	794.89
669.95	775.89
670.07	793.22
670.19	771.56
670.31	782.33
670.43	779.00
670.56	806.56
670.68	842.56
670.80	807.22
670.92	800.33
671.04	845.22
671.16	776.56
671.28	771.89
671.41	776.00
671.53	818.78
671.65	779.67
671.77	788.11
671.89	928.78
672.01	873.67
672.13	830.11
672.26	763.22
672.38	801.78
672.50	762.56
672.62	787.67
672.74	802.78
672.86	783.67
672.98	798.11
673.11	797.11
673.23	794.00
673.35	841.56
673.47	787.56
673.59	793.44
673.71	755.44
673.83	820.67
673.96	904.00
674.08	791.56
674.20	749.78
674.32	782.89
674.44	788.33
674.56	808.44
674.68	807.22
674.80	821.56
674.93	796.56
675.05	782.33
675.17	794.78
675.29	822.33
675.41	829.67
675.53	787.89
675.65	779.33
675.77	781.67
675.90	835.89
676.02	768.89
676.14	751.56
676.26	856.67
676.38	888.56
676.50	801.22
676.62	819.89
676.74	762.11
676.87	780.44
676.99	804.22
677.11	831.22
677.23	803.89
677.35	821.11
677.47	749.22
677.59	772.22
677.71	813.67
677.83	819.22
677.96	799.67
678.08	792.11
678.20	790.44
678.32	762.44
678.44	789.78
678.56	788.33
678.68	914.33
678.80	827.56
678.93	786.44
679.05	800.67
679.17	793.44
679.29	843.78
679.41	798.67
679.53	773.78
679.65	764.33
679.77	799.44
679.89	783.67
680.01	817.89
680.14	815.33
680.26	736.33
680.38	781.67
680.50	820.44
680.62	866.56
680.74	809.89
680.86	781.89
680.98	794.67
681.10	815.89
681.22	880.11
681.35	777.78
681.47	785.67
681.59	765.78
681.71	864.56
681.83	791.78
681.95	767.33
682.07	848.00
682.19	814.22
682.31	779.44
682.43	752.00
682.56	818.33
682.68	752.22
682.80	766.22
682.92	814.78
683.04	794.00
683.16	781.89
683.28	766.89
683.40	821.44
683.52	792.67
683.64	817.11
683.76	760.67
683.89	778.67
684.01	787.22
684.13	841.67
684.25	798.33
684.37	799.22
684.49	828.00
684.61	786.56
684.73	792.67
684.85	786.22
684.97	761.67
685.09	851.22
685.21	762.00
685.34	793.67
685.46	913.00
685.58	821.78
685.70	810.67
685.82	836.78
685.94	770.44
686.06	761.56
686.18	759.22
686.30	776.78
686.42	754.56
686.54	817.56
686.66	762.00
686.79	863.22
686.91	814.11
687.03	903.11
687.15	827.22
687.27	791.11
687.39	791.89
687.51	858.56
687.63	806.00
687.75	847.67
687.87	820.33
687.99	862.33
688.11	766.56
688.23	813.56
688.35	840.44
688.48	822.78
688.60	755.56
688.72	789.22
688.84	804.33
688.96	825.89
689.08	791.67
689.20	792.44
689.32	904.89
689.44	808.33
689.56	750.22
689.68	772.56
689.80	778.33
689.92	765.56
690.04	775.00
690.16	821.00
690.28	812.56
690.41	812.56
690.53	772.67
690.65	830.11
690.77	843.33
690.89	832.00
691.01	796.89
691.13	775.11
691.25	751.44
691.37	784.89
691.49	738.00
691.61	742.67
691.73	864.44
691.85	792.56
691.97	788.22
692.09	763.22
692.21	832.33
692.33	857.44
692.45	810.89
692.57	774.56
692.70	799.89
692.82	816.78
692.94	740.67
693.06	773.00
693.18	796.11
693.30	775.78
693.42	770.00
693.54	806.89
693.66	814.44
693.78	813.11
693.90	776.22
694.02	796.11
694.14	820.56
694.26	777.56
694.38	805.22
694.50	807.22
694.62	811.56
694.74	755.78
694.86	762.78
694.98	795.33
695.10	811.56
695.22	844.00
695.34	779.44
695.46	771.22
695.58	777.78
695.71	806.67
695.83	777.56
695.95	777.67
696.07	854.89
696.19	761.44
696.31	774.44
696.43	759.78
696.55	875.22
696.67	808.33
696.79	775.11
696.91	793.78
697.03	771.89
697.15	865.89
697.27	802.89
697.39	767.22
697.51	821.56
697.63	764.44
697.75	772.11
697.87	797.11
697.99	742.78
698.11	725.44
698.23	748.89
698.35	773.78
698.47	774.44
698.59	801.33
698.71	781.44
698.83	837.22
698.95	769.67
699.07	796.00
699.19	779.44
699.31	794.33
699.43	765.89
699.55	808.56
699.67	779.89
699.79	779.11
699.91	763.44
700.03	793.44
700.15	794.78
700.27	757.56
700.39	797.56
700.51	749.44
700.63	792.89
700.75	786.44
700.87	806.22
700.99	778.33
701.11	821.11
701.24	782.89
701.36	827.11
701.48	829.22
701.60	815.44
701.72	760.67
701.84	857.78
701.96	810.89
702.08	797.11
702.20	870.22
702.32	819.33
702.44	813.33
702.56	784.22
702.68	781.11
702.80	798.22
702.92	879.78
703.04	863.00
703.16	802.56
703.28	809.00
703.40	781.67
703.52	807.89
703.64	808.78
703.76	807.11
703.88	782.56
704.00	767.44
704.12	794.67
704.24	839.78
704.36	799.44
704.48	804.00
704.60	756.89
704.72	781.56
704.84	781.00
704.96	815.33
705.07	799.33
705.19	756.67
705.31	779.56
705.43	827.22
705.55	772.33
705.67	808.44
705.79	795.22
705.91	732.00
706.03	801.56
706.15	795.33
706.27	784.56
706.39	773.56
706.51	764.33
706.63	772.89
706.75	809.78
706.87	808.11
706.99	853.56
707.11	792.44
707.23	779.22
707.35	808.33
707.47	797.33
707.59	821.89
707.71	835.00
707.83	784.22
707.95	829.33
708.07	782.00
708.19	909.44
708.31	809.44
708.43	765.44
708.55	807.33
708.67	843.56
708.79	801.33
708.91	824.67
709.03	805.89
709.15	835.78
709.27	768.33
709.39	806.00
709.51	784.00
709.63	815.22
709.75	822.67
709.87	751.78
709.99	825.33
710.11	776.00
710.23	770.11
710.35	759.89
710.47	893.33
710.58	845.67
710.70	845.78
710.82	847.22
710.94	797.44
711.06	783.33
711.18	812.22
711.30	780.00
711.42	828.33
711.54	792.00
711.66	820.67
711.78	774.33
711.90	821.78
712.02	861.22
712.14	770.22
712.26	751.33
712.38	841.22
712.50	854.33
712.62	787.89
712.74	779.89
712.86	770.11
712.98	838.00
713.10	773.56
713.22	754.00
713.34	799.11
713.45	776.00
713.57	811.33
713.69	768.00
713.81	777.22
713.93	802.11
714.05	788.56
714.17	761.33
714.29	850.56
714.41	843.11
714.53	786.00
714.65	814.89
714.77	797.56
714.89	753.89
715.01	847.44
715.13	764.89
715.25	802.44
715.37	772.11
715.49	749.22
715.61	816.33
715.72	810.67
715.84	840.00
715.96	787.44
716.08	786.89
716.20	863.11
716.32	837.33
716.44	785.44
716.56	790.89
716.68	799.22
716.80	876.67
716.92	855.00
717.04	808.56
717.16	821.22
717.28	792.44
717.40	785.89
717.52	805.67
717.63	779.67
717.75	797.67
717.87	794.33
717.99	811.78
718.11	777.11
718.23	857.22
718.35	812.33
718.47	802.78
718.59	751.78
718.71	792.78
718.83	776.78
718.95	826.11
719.07	756.78
719.19	782.44
719.30	790.00
719.42	802.89
719.54	790.78
719.66	803.00
719.78	800.56
719.90	742.33
720.02	792.33
720.14	807.00
720.26	832.67
720.38	824.44
720.50	777.78
720.62	730.33
720.74	800.22
720.85	801.78
720.97	846.56
721.09	886.44
721.21	792.56
721.33	860.89
721.45	808.44
721.57	816.89
721.69	768.33
721.81	747.56
721.93	848.22
722.05	809.56
722.16	766.67
722.28	740.44
722.40	778.78
722.52	845.78
722.64	854.56
722.76	771.11
722.88	808.67
723.00	820.78
723.12	775.11
723.24	800.44
723.36	742.56
723.47	833.22
723.59	807.78
723.71	786.00
723.83	814.00
723.95	781.56
724.07	796.67
724.19	812.11
724.31	866.67
724.43	768.67
724.55	724.89
724.66	769.22
724.78	922.44
724.90	768.00
725.02	771.44
725.14	776.33
725.26	796.78
725.38	740.67
725.50	792.89
725.62	810.22
725.74	789.78
725.85	787.89
725.97	799.67
726.09	854.56
726.21	1137.78
726.33	829.56
726.45	796.11
726.57	769.67
726.69	802.56
726.81	799.89
726.92	791.00
727.04	805.00
727.16	816.00
727.28	785.89
727.40	785.67
727.52	803.89
727.64	904.89
727.76	872.33
727.88	824.00
727.99	761.11
728.11	763.56
728.23	784.00
728.35	773.22
728.47	776.67
728.59	781.44
728.71	803.78
728.83	798.33
728.94	819.78
729.06	879.00
729.18	857.33
729.30	819.56
729.42	807.78
729.54	869.44
729.66	883.33
729.78	802.89
729.90	811.00
730.01	774.22
730.13	726.56
730.25	797.22
730.37	789.56
730.49	824.44
730.61	818.22
730.73	811.44
730.84	825.78
730.96	818.11
731.08	807.11
731.20	805.11
731.32	806.11
731.44	938.89
731.56	793.00
731.68	762.33
731.79	804.11
731.91	769.56
732.03	781.56
732.15	793.11
732.27	763.11
732.39	780.22
732.51	824.78
732.62	771.33
732.74	782.56
732.86	841.00
732.98	808.89
733.10	800.67
733.22	813.67
733.34	821.78
733.45	742.44
733.57	794.11
733.69	756.22
733.81	782.11
733.93	798.00
734.05	727.78
734.17	796.44
734.28	796.89
734.40	800.22
734.52	786.22
734.64	791.67
734.76	868.22
734.88	807.56
735.00	763.89
735.11	795.67
735.23	840.11
735.35	782.44
735.47	747.56
735.59	839.67
735.71	794.44
735.83	805.33
735.94	817.78
736.06	807.89
736.18	853.33
736.30	840.00
736.42	819.44
736.54	815.11
736.65	823.89
736.77	944.67
736.89	846.78
737.01	805.56
737.13	903.67
737.25	738.89
737.36	769.33
737.48	787.67
737.60	800.78
737.72	789.00
737.84	795.89
737.96	844.56
738.08	795.00
738.19	886.44
738.31	789.11
738.43	811.78
738.55	796.78
738.67	802.44
738.79	773.89
738.90	797.33
739.02	806.22
739.14	778.22
739.26	794.78
739.38	800.22
739.50	812.56
739.61	794.11
739.73	797.56
739.85	800.89
739.97	817.89
740.09	856.22
740.20	751.56
740.32	807.89
740.44	819.11
740.56	762.22
740.68	796.78
740.80	804.00
740.91	796.33
741.03	833.22
741.15	822.22
741.27	792.11
741.39	835.56
741.51	812.56
741.62	838.00
741.74	798.67
741.86	797.22
741.98	789.56
742.10	810.33
742.21	806.89
742.33	801.33
742.45	769.56
742.57	857.11
742.69	792.56
742.80	831.33
742.92	790.44
743.04	798.67
743.16	791.22
743.28	846.56
743.40	768.33
743.51	775.44
743.63	766.33
743.75	803.78
743.87	803.56
743.99	818.56
744.10	795.22
744.22	801.11
744.34	778.44
744.46	827.44
744.58	819.33
744.69	737.89
744.81	805.78
744.93	758.22
745.05	765.67
745.17	875.89
745.28	865.56
745.40	830.56
745.52	796.78
745.64	807.67
745.76	834.22
745.87	793.67
745.99	780.33
746.11	806.00
746.23	764.22
746.35	790.44
746.46	778.22
746.58	896.56
746.70	810.00
746.82	805.00
746.94	794.11
747.05	770.00
747.17	753.00
747.29	748.56
747.41	785.89
747.53	918.44
747.64	789.22
747.76	839.11
747.88	853.00
748.00	845.56
748.12	812.33
748.23	802.89
748.35	815.67
748.47	838.44
748.59	838.67
748.70	785.44
748.82	768.33
748.94	764.78
749.06	784.56
749.18	789.89
749.29	776.56
749.41	818.22
749.53	800.44
749.65	792.44
749.76	834.44
749.88	788.78
750.00	811.89
750.12	831.44
750.24	813.89
750.35	801.56
750.47	760.22
750.59	825.56
750.71	796.33
750.82	827.11
750.94	778.11
751.06	795.56
751.18	786.11
751.30	833.78
751.41	831.78
751.53	838.67
751.65	779.89
751.77	782.00
751.88	813.78
752.00	846.00
752.12	757.56
752.24	848.44
752.35	821.44
752.47	831.33
752.59	845.56
752.71	881.89
752.83	783.33
752.94	860.33
753.06	783.22
753.18	801.33
753.30	778.56
753.41	739.78
753.53	786.22
753.65	782.78
753.77	842.56
753.88	773.00
754.00	806.44
754.12	805.22
754.24	864.33
754.35	778.33
754.47	746.11
754.59	824.22
754.71	822.22
754.82	796.11
754.94	787.56
755.06	854.00
755.18	824.33
755.29	812.11
755.41	788.56
755.53	828.78
755.65	774.00
755.76	807.33
755.88	804.89
756.00	855.78
756.12	782.00
756.23	715.78
756.35	770.89
756.47	836.78
756.59	787.78
756.70	783.00
756.82	781.11
756.94	783.00
757.06	820.33
757.17	823.22
757.29	794.67
757.41	750.56
757.53	818.00
757.64	802.11
757.76	811.78
757.88	819.11
758.00	823.22
758.11	784.89
758.23	760.56
758.35	822.33
758.47	765.89
758.58	817.22
758.70	756.11
758.82	778.33
758.94	763.44
759.05	794.44
759.17	754.33
759.29	788.78
759.40	855.44
759.52	783.56
759.64	788.22
759.76	807.67
759.87	818.44
759.99	822.56
760.11	784.11
760.23	806.44
760.34	832.78
760.46	819.67
760.58	792.11
760.70	800.11
760.81	851.00
760.93	811.89
761.05	828.44
761.16	803.78
761.28	786.22
761.40	779.22
761.52	762.33
761.63	850.00
761.75	804.56
761.87	788.22
761.98	759.78
762.10	824.33
762.22	806.00
762.34	840.67
762.45	786.33
762.57	832.67
762.69	923.89
762.81	798.44
762.92	828.67
763.04	758.33
763.16	827.67
763.27	831.67
763.39	789.11
763.51	827.67
763.63	830.11
763.74	786.11
763.86	752.11
763.98	770.11
764.09	786.78
764.21	805.00
764.33	764.89
764.44	781.00
764.56	804.56
764.68	778.78
764.80	805.33
764.91	754.44
765.03	860.78
765.15	803.22
765.26	796.44
765.38	769.78
765.50	831.89
765.62	801.11
765.73	800.00
765.85	805.22
765.97	755.56
766.08	804.89
766.20	816.44
766.32	817.67
766.43	835.44
766.55	827.11
766.67	790.00
766.79	803.11
766.90	773.11
767.02	739.44
767.14	758.78
767.25	763.00
767.37	886.67
767.49	816.89
767.60	798.67
767.72	849.56
767.84	824.78
767.95	786.67
768.07	769.22
768.19	819.78
768.31	823.78
768.42	806.22
768.54	793.22
768.66	792.22
768.77	825.44
768.89	792.67
769.01	780.11
769.12	825.00
769.24	811.44
769.36	771.56
769.47	769.78
769.59	763.22
769.71	815.44
769.82	786.67
769.94	778.22
770.06	761.00
770.17	837.00
770.29	808.78
770.41	833.78
770.53	819.44
770.64	769.33
770.76	808.78
770.88	825.56
770.99	831.00
771.11	771.00
771.23	816.00
771.34	802.22
771.46	891.33
771.58	853.67
771.69	830.78
771.81	810.00
771.93	840.22
772.04	777.89
772.16	834.89
772.28	807.44
772.39	848.00
772.51	801.44
772.63	828.11
772.74	788.78
772.86	795.67
772.98	904.89
773.09	772.22
773.21	781.00
773.33	822.67
773.44	819.33
773.56	797.89
773.68	800.33
773.79	845.67
773.91	791.22
774.03	808.11
774.14	797.22
774.26	843.56
774.38	771.00
774.49	758.78
774.61	798.56
774.73	805.33
774.84	785.33
774.96	779.11
775.08	806.56
775.19	822.33
775.31	856.67
775.43	813.11
775.54	780.22
775.66	753.89
775.77	842.44
775.89	775.11
776.01	833.56
776.12	845.22
776.24	818.44
776.36	766.78
776.47	785.00
776.59	810.11
776.71	841.89
776.82	742.11
776.94	766.44
777.06	789.78
777.17	865.56
777.29	770.33
777.41	776.44
777.52	817.78
777.64	813.89
777.75	828.78
777.87	750.89
777.99	787.44
778.10	840.00
778.22	785.44
778.34	804.00
778.45	798.67
778.57	842.44
778.69	838.56
778.80	811.56
778.92	900.56
779.04	818.78
779.15	803.78
779.27	843.00
779.38	831.11
779.50	861.11
779.62	757.33
779.73	802.89
779.85	756.00
779.97	906.89
780.08	807.56
780.20	796.67
780.31	828.11
780.43	844.78
780.55	786.89
780.66	815.33
780.78	830.22
780.90	899.89
781.01	781.89
781.13	797.67
781.25	795.22
781.36	845.00
781.48	775.67
781.59	806.22
781.71	836.00
781.83	820.78
781.94	773.22
782.06	775.89
782.18	846.67
782.29	800.00
782.41	754.00
782.52	847.11
782.64	849.33
782.76	820.67
782.87	825.44
782.99	800.78
783.10	926.44
783.22	941.78
783.34	811.22
783.45	814.89
783.57	806.00
783.69	783.44
783.80	817.89
783.92	840.44
784.03	807.33
784.15	780.67
784.27	799.00
784.38	794.11
784.50	806.67
784.61	803.78
784.73	779.00
784.85	794.11
784.96	790.67
785.08	857.56
785.19	848.78
785.31	794.33
785.43	770.56
785.54	774.56
785.66	835.22
785.77	819.78
785.89	824.56
786.01	760.67
786.12	798.89
786.24	816.44
786.35	879.11
786.47	812.78
786.59	792.44
786.70	764.44
786.82	816.67
786.93	819.11
787.05	802.33
787.17	827.56
787.28	804.11
787.40	820.11
787.51	822.33
787.63	832.33
787.75	768.89
787.86	817.00
787.98	836.22
788.09	804.67
788.21	824.67
788.33	840.56
788.44	824.56
788.56	785.22
788.67	828.33
788.79	786.56
788.91	803.44
789.02	787.33
789.14	797.44
789.25	890.44
789.37	839.11
789.48	786.67
789.60	812.89
789.72	780.00
789.83	831.67
789.95	813.89
790.06	763.56
790.18	776.89
790.30	836.33
790.41	816.56
790.53	783.44
790.64	763.67
790.76	767.56
790.87	796.67
790.99	809.78
791.11	811.11
791.22	789.00
791.34	807.11
791.45	840.00
791.57	835.22
791.68	796.67
791.80	787.56
791.92	833.22
792.03	787.11
792.15	768.89
792.26	789.44
792.38	758.33
792.49	824.44
792.61	799.44
792.73	811.44
792.84	799.67
792.96	892.11
793.07	795.22
793.19	1548.33
793.30	879.22
793.42	836.56
793.54	744.11
793.65	763.22
793.77	926.67
793.88	801.89
794.00	759.22
794.11	809.89
794.23	753.78
794.34	805.44
794.46	746.11
794.58	757.78
794.69	880.22
794.81	878.67
794.92	773.56
795.04	771.78
795.15	874.22
795.27	834.67
795.39	806.11
795.50	778.11
795.62	776.56
795.73	789.78
795.85	775.22
795.96	814.11
796.08	856.56
796.19	785.89
796.31	793.56
796.42	767.78
796.54	778.44
796.66	834.44
796.77	760.33
796.89	756.56
797.00	845.22
797.12	730.89
797.23	792.11
797.35	819.11
797.46	828.78
797.58	856.11
797.69	822.78
797.81	792.33
797.93	796.89
798.04	776.33
798.16	776.78
798.27	817.67
798.39	771.89
798.50	759.00
798.62	758.22
798.73	758.78
798.85	866.44
798.96	799.00
799.08	819.22
799.19	834.11
799.31	806.44
799.43	805.33
799.54	791.44
799.66	816.22
799.77	831.56
799.89	769.00
800.00	737.89
800.12	790.67
800.23	853.00
800.35	881.56
800.46	749.00
800.58	733.11
800.69	790.89
800.81	782.44
800.92	763.89
801.04	802.44
801.16	736.44
801.27	748.67
801.39	758.00
801.50	779.11
801.62	793.89
801.73	843.56
801.85	834.89
801.96	758.44
802.08	844.00
802.19	842.00
802.31	789.11
802.42	805.33
802.54	871.56
802.65	852.56
802.77	772.11
802.88	835.44
803.00	755.00
803.11	893.00
803.23	803.44
803.34	803.56
803.46	818.44
803.57	759.67
803.69	834.89
803.80	764.22
803.92	846.00
804.03	792.67
804.15	810.11
804.26	821.33
804.38	834.78
804.50	770.00
804.61	806.89
804.73	804.89
804.84	797.11
804.96	736.22
805.07	797.00
805.19	767.89
805.30	818.11
805.42	845.11
805.53	795.11
805.65	775.22
805.76	754.00
805.88	782.00
805.99	815.89
806.11	828.11
806.22	775.67
806.34	782.00
806.45	798.33
806.57	781.44
806.68	833.33
806.80	730.22
806.91	767.56
807.03	759.44
807.14	743.11
807.26	748.67
807.37	749.78
807.49	807.44
807.60	778.00
807.72	861.56
807.83	877.00
807.95	803.78
808.06	813.56
808.17	807.44
808.29	834.44
808.40	762.56
808.52	804.44
808.63	803.67
808.75	813.44
808.86	793.22
808.98	815.67
809.09	776.78
809.21	812.11
809.32	775.00
809.44	821.67
809.55	755.44
809.67	809.56
809.78	771.89
809.90	823.00
810.01	856.56
810.13	783.56
810.24	835.56
810.36	748.22
810.47	771.00
810.59	800.11
810.70	817.22
810.82	840.33
810.93	761.22
811.05	764.78
811.16	782.22
811.27	761.67
811.39	800.78
811.50	843.44
811.62	745.22
811.73	734.22
811.85	808.67
811.96	808.11
812.08	826.44
812.19	805.67
812.31	824.11
812.42	791.11
812.54	781.56
812.65	839.89
812.77	841.22
812.88	837.44
813.00	837.89
813.11	821.56
813.22	777.56
813.34	784.89
813.45	803.56
813.57	878.56
813.68	883.33
813.80	803.33
813.91	771.33
814.03	792.33
814.14	883.44
814.26	793.00
814.37	801.78
814.49	801.89
814.60	783.56
814.71	780.89
814.83	798.67
814.94	759.44
815.06	787.67
815.17	796.33
815.29	798.78
815.40	767.44
815.52	880.11
815.63	791.56
815.75	784.78
815.86	807.78
815.97	762.78
816.09	801.00
816.20	817.00
816.32	824.56
816.43	759.44
816.55	808.89
816.66	787.33
816.78	885.78
816.89	800.22
817.00	807.56
817.12	778.89
817.23	779.44
817.35	839.22
817.46	812.44
817.58	772.00
817.69	919.22
817.81	815.22
817.92	837.22
818.03	812.67
818.15	810.22
818.26	773.89
818.38	760.00
818.49	797.00
818.61	809.33
818.72	765.67
818.83	1794.67
818.95	929.00
819.06	780.22
819.18	787.11
819.29	813.44
819.41	810.22
819.52	812.67
819.64	809.33
819.75	782.89
819.86	759.11
819.98	787.67
820.09	823.00
820.21	806.89
820.32	776.89
820.44	816.00
820.55	865.44
820.66	784.89
820.78	832.56
820.89	805.33
821.01	818.44
821.12	811.78
821.23	812.44
821.35	791.00
821.46	847.44
821.58	809.78
821.69	790.89
821.81	780.56
821.92	857.11
822.03	800.00
822.15	812.78
822.26	767.00
822.38	768.11
822.49	827.78
822.61	814.22
822.72	813.22
822.83	849.67
822.95	805.00
823.06	812.78
823.18	852.22
823.29	873.00
823.40	829.11
823.52	799.67
823.63	763.56
823.75	893.56
823.86	806.22
823.97	759.89
824.09	832.56
824.20	773.22
824.32	819.67
824.43	804.00
824.55	839.78
824.66	893.33
824.77	806.67
824.89	823.78
825.00	867.78
825.12	815.22
825.23	836.11
825.34	765.22
825.46	778.00
825.57	839.00
825.69	789.56
825.80	745.56
825.91	782.11
826.03	757.00
826.14	823.89
826.26	773.89
826.37	808.22
826.48	794.11
826.60	807.89
826.71	784.11
826.83	809.33
826.94	822.00
827.05	856.56
827.17	841.22
827.28	797.56
827.39	786.78
827.51	773.67
827.62	805.33
827.74	805.89
827.85	794.67
827.96	784.67
828.08	794.78
828.19	892.89
828.31	798.56
828.42	750.44
828.53	823.22
828.65	851.89
828.76	861.56
828.87	822.11
828.99	776.56
