Wavelength (nm)	Intensity
377.35	808.624
377.48	591.9739999999999
377.62	616.774
377.75	614.824
377.88	822.726
378.02	805.4
378.15	811.024
378.28	781.424
378.41	851.052
378.55	823.524
378.68	809.0
378.81	790.274
378.95	816.024
379.08	805.85
379.21	770.85
379.35	831.426
379.48	832.2760000000001
379.61	885.1
379.74	808.824
379.88	790.426
380.01	867.95
380.14	923.0260000000001
380.28	847.9739999999999
380.41	778.298
380.54	825.95
380.68	836.75
380.81	753.9
380.94	832.1
381.07	879.25
381.21	884.6
381.34	807.024
381.47	751.6479999999999
381.61	954.874
381.74	817.302
381.87	778.35
382.0	832.074
382.14	898.5
382.27	851.5
382.4	797.05
382.54	876.2760000000001
382.67	873.7760000000001
382.8	781.726
382.93	787.7479999999999
383.07	814.45
383.2	816.326
383.33	847.5
383.47	791.7
383.6	768.9739999999999
383.73	955.2760000000001
383.86	843.2239999999999
384.0	805.35
384.13	797.124
384.26	847.174
384.4	861.8
384.53	813.624
384.66	859.9739999999999
384.79	828.124
384.93	797.024
385.06	800.35
385.19	821.876
385.33	926.376
385.46	846.9
385.59	790.774
385.72	831.324
385.86	771.674
385.99	804.024
386.12	804.176
386.25	783.052
386.39	855.876
386.52	874.25
386.65	808.524
386.79	800.952
386.92	795.174
387.05	894.2239999999999
387.18	769.524
387.32	783.35
387.45	846.75
387.58	822.0260000000001
387.71	795.65
387.85	791.9
387.98	829.85
388.11	844.5
388.25	827.05
388.38	812.3
388.51	847.65
388.64	856.074
388.78	790.226
388.91	770.076
389.04	812.124
389.17	918.2520000000001
389.31	820.2239999999999
389.44	837.348
389.57	872.6479999999999
389.7	842.376
389.84	800.3979999999999
389.97	790.876
390.1	798.4739999999999
390.24	841.45
390.37	809.1479999999999
390.5	792.8520000000001
390.63	878.55
390.77	820.574
390.9	823.0260000000001
391.03	815.3
391.16	770.9739999999999
391.3	799.624
391.43	800.4
391.56	799.124
391.69	786.15
391.83	862.9
391.96	823.076
392.09	800.374
392.22	900.702
392.36	833.098
392.49	782.7239999999999
392.62	802.448
392.75	837.65
392.89	879.7760000000001
393.02	779.9
393.15	783.948
393.28	770.576
393.42	900.548
393.55	766.3
393.68	796.524
393.81	743.598
393.95	797.324
394.08	791.4739999999999
394.21	795.176
394.34	853.476
394.48	844.5
394.61	849.174
394.74	826.874
394.87	859.75
395.01	827.726
395.14	842.3
395.27	791.35
395.4	907.9
395.54	905.05
395.67	817.676
395.8	803.05
395.93	843.5
396.07	794.9
396.2	788.75
396.33	746.65
396.46	794.926
396.59	811.65
396.73	806.826
396.86	781.55
396.99	865.95
397.12	826.924
397.26	817.076
397.39	810.15
397.52	1097.05
397.65	920.2760000000001
397.79	813.85
397.92	802.826
398.05	861.4739999999999
398.18	795.626
398.32	803.626
398.45	833.65
398.58	836.7479999999999
398.71	841.024
398.84	773.326
398.98	807.702
399.11	842.7760000000001
399.24	832.826
399.37	799.25
399.51	777.048
399.64	814.174
399.77	816.85
399.9	811.1
400.03	809.798
400.17	770.952
400.3	875.924
400.43	844.374
400.56	815.874
400.7	817.55
400.83	791.826
400.96	783.774
401.09	819.124
401.23	821.374
401.36	880.7760000000001
401.49	798.374
401.62	815.976
401.75	807.35
401.89	785.574
402.02	794.626
402.15	815.226
402.28	832.676
402.41	825.624
402.55	795.876
402.68	805.5
402.81	883.698
402.94	856.3
403.08	791.376
403.21	774.124
403.34	853.5020000000001
403.47	850.226
403.6	805.326
403.74	835.05
403.87	853.4739999999999
404.0	790.0020000000001
404.13	789.074
404.26	766.4
404.4	781.0260000000001
404.53	830.926
404.66	805.124
404.79	777.476
404.93	850.774
405.06	825.774
405.19	766.25
405.32	820.65
405.45	836.274
405.59	852.326
405.72	814.65
405.85	789.976
405.98	984.7760000000001
406.11	786.324
406.25	781.298
406.38	798.0
406.51	841.0
406.64	811.924
406.77	768.75
406.91	770.626
407.04	836.552
407.17	803.626
407.3	824.226
407.43	805.476
407.57	884.948
407.7	869.374
407.83	784.926
407.96	812.1
408.09	775.7239999999999
408.23	898.476
408.36	810.574
408.49	798.074
408.62	926.826
408.75	825.676
408.89	788.1
409.02	831.726
409.15	820.0260000000001
409.28	898.524
409.41	844.7239999999999
409.55	789.25
409.68	929.548
409.81	831.374
409.94	788.476
410.07	821.876
410.2	821.65
410.34	803.15
410.47	810.576
410.6	820.976
410.73	847.626
410.86	787.874
411.0	813.676
411.13	782.226
411.26	824.75
411.39	819.552
411.52	833.124
411.66	801.5
411.79	798.45
411.92	787.826
412.05	805.574
412.18	796.95
412.31	833.7239999999999
412.45	862.076
412.58	849.0260000000001
412.71	775.424
412.84	833.2
412.97	894.0020000000001
413.11	817.598
413.24	832.576
413.37	855.524
413.5	917.4739999999999
413.63	830.774
413.76	800.374
413.9	845.9739999999999
414.03	800.5260000000001
414.16	796.176
414.29	828.624
414.42	814.7760000000001
414.56	917.674
414.69	795.2760000000001
414.82	808.9
414.95	814.1
415.08	835.3
415.21	810.65
415.35	829.6
415.48	741.726
415.61	863.424
415.74	865.976
415.87	772.2760000000001
416.0	826.4739999999999
416.14	928.402
416.27	821.126
416.4	782.8
416.53	809.802
416.66	839.924
416.79	817.976
416.93	783.326
417.06	835.1479999999999
417.19	816.926
417.32	803.55
417.45	792.75
417.58	769.874
417.72	855.726
417.85	795.45
417.98	810.0260000000001
418.11	848.4
418.24	790.976
418.37	796.55
418.51	815.0
418.64	822.376
418.77	892.152
418.9	826.15
419.03	773.426
419.16	828.2
419.29	859.174
419.43	795.7760000000001
419.56	779.5
419.69	924.9
419.82	867.1020000000001
419.95	811.1
420.08	854.6
420.22	881.25
420.35	937.85
420.48	855.1020000000001
420.61	803.6
420.74	759.6
420.87	849.65
421.0	777.326
421.14	803.126
421.27	854.924
421.4	889.7760000000001
421.53	833.9739999999999
421.66	812.1479999999999
421.79	812.2
421.93	816.7239999999999
422.06	815.3
422.19	792.25
422.32	858.298
422.45	861.976
422.58	827.1
422.71	798.45
422.85	860.598
422.98	860.376
423.11	770.176
423.24	756.0
423.37	782.05
423.5	788.8
423.63	814.598
423.77	784.6
423.9	787.726
424.03	834.674
424.16	839.35
424.29	810.024
424.42	761.524
424.55	786.6
424.69	781.1
424.82	815.626
424.95	824.4739999999999
425.08	789.024
425.21	832.576
425.34	797.874
425.47	813.048
425.6	828.25
425.74	766.574
425.87	798.876
426.0	811.85
426.13	825.076
426.26	784.374
426.39	788.8
426.52	802.576
426.66	879.1
426.79	839.65
426.92	784.2239999999999
427.05	912.7
427.18	872.8
427.31	804.174
427.44	803.126
427.57	787.024
427.71	816.126
427.84	776.076
427.97	812.9
428.1	871.826
428.23	820.85
428.36	795.0260000000001
428.49	726.774
428.62	941.05
428.76	912.348
428.89	825.8
429.02	766.55
429.15	807.7760000000001
429.28	914.05
429.41	795.05
429.54	803.976
429.67	797.85
429.81	845.876
429.94	812.05
430.07	792.45
430.2	859.05
430.33	877.6
430.46	778.8
430.59	779.8
430.72	815.176
430.85	763.55
430.99	803.85
431.12	782.124
431.25	869.0
431.38	883.452
431.51	811.7239999999999
431.64	814.876
431.77	896.95
431.9	887.35
432.03	812.624
432.17	786.626
432.3	823.55
432.43	841.8
432.56	815.926
432.69	831.7239999999999
432.82	829.7760000000001
432.95	870.774
433.08	816.4979999999999
433.21	815.6479999999999
433.35	803.0
433.48	813.126
433.61	774.85
433.74	803.976
433.87	790.75
434.0	845.476
434.13	786.924
434.26	838.152
434.39	834.6
434.53	845.524
434.66	806.6
434.79	803.4739999999999
434.92	795.9739999999999
435.05	878.6
435.18	793.35
435.31	832.25
435.44	874.1
435.57	821.0
435.7	811.7239999999999
435.84	783.824
435.97	883.074
436.1	930.376
436.23	800.826
436.36	782.426
436.49	796.5
436.62	831.376
436.75	806.55
436.88	833.674
437.01	794.174
437.14	778.95
437.28	757.302
437.41	793.2520000000001
437.54	877.35
437.67	850.424
437.8	787.15
437.93	768.924
438.06	934.774
438.19	862.476
438.32	769.624
438.45	779.674
438.58	840.6020000000001
438.72	891.2239999999999
438.85	854.9
438.98	802.95
439.11	832.326
439.24	886.524
439.37	869.348
439.5	840.4739999999999
439.63	870.524
439.76	799.626
439.89	788.176
440.02	796.9
440.15	841.024
440.29	881.4739999999999
440.42	813.448
440.55	806.25
440.68	888.874
440.81	940.0260000000001
440.94	823.548
441.07	812.45
441.2	905.45
441.33	832.274
441.46	805.3
441.59	794.4
441.72	811.674
441.85	822.85
441.99	849.35
442.12	849.5260000000001
442.25	903.0260000000001
442.38	841.75
442.51	835.126
442.64	770.426
442.77	816.674
442.9	803.976
443.03	772.9
443.16	795.65
443.29	825.05
443.42	887.874
443.55	800.2760000000001
443.68	819.05
443.82	767.674
443.95	799.376
444.08	796.65
444.21	810.024
444.34	786.7
444.47	809.824
444.6	809.674
444.73	824.076
444.86	819.2
444.99	882.2239999999999
445.12	832.85
445.25	822.924
445.38	828.55
445.51	853.826
445.64	822.8
445.78	796.55
445.91	760.5260000000001
446.04	930.924
446.17	861.85
446.3	762.5
446.43	834.426
446.56	820.05
446.69	783.55
446.82	790.25
446.95	862.426
447.08	864.0
447.21	820.7760000000001
447.34	796.65
447.47	861.052
447.6	852.676
447.73	813.476
447.86	845.15
447.99	822.4
448.13	836.75
448.26	851.35
448.39	807.874
448.52	852.65
448.65	857.9
448.78	816.048
448.91	807.2
449.04	845.976
449.17	802.176
449.3	836.374
449.43	826.45
449.56	819.7
449.69	880.926
449.82	816.176
449.95	767.75
450.08	871.1
450.21	846.076
450.34	812.624
450.47	806.45
450.6	856.3
450.73	822.0
450.87	804.25
451.0	826.126
451.13	854.55
451.26	970.55
451.39	801.6
451.52	834.0260000000001
451.65	809.674
451.78	801.9
451.91	797.0
452.04	790.626
452.17	899.8
452.3	896.4739999999999
452.43	800.8
452.56	797.624
452.69	864.05
452.82	782.426
452.95	845.0260000000001
453.08	786.624
453.21	745.5260000000001
453.34	861.452
453.47	790.926
453.6	859.476
453.73	910.15
453.86	847.326
453.99	831.874
454.12	829.674
454.25	808.7
454.38	831.824
454.52	778.924
454.65	796.174
454.78	790.85
454.91	765.874
455.04	792.552
455.17	776.826
455.3	782.2239999999999
455.43	874.926
455.56	801.7520000000001
455.69	768.626
455.82	842.476
455.95	832.25
456.08	771.524
456.21	771.8
456.34	762.976
456.47	751.426
456.6	795.226
456.73	782.8
456.86	805.2760000000001
456.99	837.2
457.12	783.452
457.25	794.15
457.38	872.024
457.51	849.35
457.64	824.8
457.77	798.2239999999999
457.9	810.5
458.03	799.75
458.16	800.126
458.29	804.9739999999999
458.42	806.374
458.55	760.25
458.68	782.85
458.81	801.2479999999999
458.94	877.926
459.07	918.4739999999999
459.2	773.7760000000001
459.33	785.174
459.46	874.826
459.59	910.926
459.72	873.0260000000001
459.85	808.826
459.98	889.0
460.11	846.924
460.24	814.5260000000001
460.37	770.402
460.5	854.2760000000001
460.63	831.626
460.76	801.9
460.89	814.35
461.02	839.3
461.15	850.15
461.28	807.624
461.41	799.376
461.54	888.652
461.67	783.5
461.8	818.65
461.93	855.924
462.06	838.926
462.19	863.874
462.32	797.1
462.45	789.576
462.58	845.024
462.71	799.024
462.84	805.7760000000001
462.97	754.826
463.1	809.55
463.23	825.476
463.36	844.426
463.49	816.85
463.62	765.3
463.75	837.824
463.88	800.5
464.01	805.576
464.14	776.676
464.27	909.152
464.4	805.4979999999999
464.53	807.0260000000001
464.66	843.8
464.79	835.7760000000001
464.92	821.824
465.05	782.024
465.18	809.9
465.31	814.574
465.44	805.624
465.57	789.75
465.7	801.4739999999999
465.83	922.798
465.96	821.75
466.09	792.0
466.22	856.926
466.35	836.774
466.48	790.076
466.61	790.8979999999999
466.74	806.5
466.87	858.85
467.0	843.676
467.13	837.202
467.26	853.15
467.39	767.55
467.52	765.324
467.65	803.6
467.78	881.426
467.91	819.824
468.04	816.626
468.17	789.274
468.3	801.7239999999999
468.43	773.7760000000001
468.56	787.426
468.69	826.85
468.82	840.774
468.95	777.274
469.08	798.574
469.21	807.874
469.34	846.4
469.47	920.95
469.6	887.8
469.73	821.4739999999999
469.86	836.124
469.99	863.25
470.11	785.374
470.24	794.75
470.37	850.35
470.5	823.626
470.63	791.824
470.76	809.85
470.89	851.9
471.02	924.75
471.15	798.6
471.28	803.25
471.41	912.1
471.54	842.576
471.67	800.076
471.8	746.952
471.93	858.152
472.06	834.876
472.19	802.35
472.32	781.0
472.45	918.55
472.58	866.95
472.71	821.15
472.84	794.7
472.97	790.4
473.1	775.15
473.23	848.576
473.36	763.9
473.49	875.05
473.62	856.076
473.74	833.4
473.87	853.05
474.0	790.3
474.13	787.0260000000001
474.26	823.024
474.39	836.374
474.52	814.2760000000001
474.65	799.424
474.78	810.452
474.91	765.848
475.04	837.9979999999999
475.17	935.7239999999999
475.3	840.7760000000001
475.43	827.552
475.56	871.7760000000001
475.69	814.7520000000001
475.82	840.6479999999999
475.95	785.476
476.08	883.4979999999999
476.21	824.7520000000001
476.34	855.374
476.46	848.35
476.59	883.576
476.72	802.2760000000001
476.85	800.676
476.98	778.5260000000001
477.11	864.576
477.24	816.45
477.37	755.302
477.5	797.426
477.63	823.774
477.76	782.0
477.89	749.7479999999999
478.02	773.674
478.15	811.098
478.28	801.85
478.41	832.7
478.54	796.2760000000001
478.66	854.9739999999999
478.79	807.0
478.92	805.426
479.05	807.5260000000001
479.18	821.1
479.31	785.876
479.44	791.098
479.57	785.7760000000001
479.7	805.15
479.83	827.2
479.96	797.95
480.09	829.574
480.22	949.176
480.35	929.65
480.48	859.0
480.6	823.424
480.73	795.674
480.86	840.4
480.99	799.874
481.12	801.05
481.25	817.976
481.38	879.3520000000001
481.51	802.45
481.64	815.876
481.77	838.726
481.9	807.9
482.03	813.85
482.16	798.7
482.29	876.126
482.41	820.1
482.54	839.1
482.67	791.574
482.8	817.6
482.93	864.2239999999999
483.06	779.3520000000001
483.19	871.902
483.32	847.098
483.45	816.424
483.58	822.376
483.71	842.7760000000001
483.84	851.7760000000001
483.97	836.074
484.09	815.9
484.22	797.376
484.35	788.674
484.48	763.2760000000001
484.61	793.2239999999999
484.74	797.976
484.87	832.15
485.0	774.774
485.13	832.2239999999999
485.26	778.75
485.39	840.774
485.52	814.0
485.64	881.324
485.77	845.024
485.9	859.674
486.03	775.052
486.16	828.75
486.29	779.452
486.42	810.55
486.55	827.302
486.68	801.8
486.81	838.424
486.94	828.85
487.06	803.774
487.19	846.9
487.32	838.95
487.45	822.5020000000001
487.58	796.1
487.71	813.5260000000001
487.84	773.874
487.97	847.576
488.1	861.75
488.23	799.076
488.35	763.326
488.48	806.126
488.61	772.7760000000001
488.74	796.952
488.87	793.1
489.0	818.574
489.13	908.476
489.26	844.674
489.39	846.45
489.52	852.124
489.64	846.576
489.77	823.45
489.9	820.176
490.03	807.698
490.16	796.174
490.29	795.3520000000001
490.42	792.348
490.55	823.35
490.68	785.524
490.81	796.726
490.93	762.7239999999999
491.06	876.85
491.19	840.5260000000001
491.32	829.324
491.45	841.65
491.58	772.2
491.71	813.226
491.84	796.45
491.97	798.926
492.09	878.324
492.22	841.7
492.35	821.376
492.48	851.0260000000001
492.61	825.75
492.74	815.226
492.87	830.374
493.0	817.7760000000001
493.12	793.376
493.25	818.274
493.38	807.074
493.51	782.626
493.64	774.676
493.77	811.774
493.9	836.6
494.03	838.874
494.16	875.6
494.28	881.95
494.41	811.874
494.54	813.524
494.67	931.0260000000001
494.8	890.424
494.93	815.424
495.06	834.476
495.19	846.4
495.31	822.174
495.44	803.876
495.57	787.55
495.7	838.2
495.83	811.2520000000001
495.96	781.6
496.09	822.874
496.22	885.25
496.34	909.2
496.47	809.198
496.6	835.5260000000001
496.73	863.5260000000001
496.86	857.45
496.99	787.2239999999999
497.12	817.05
497.24	761.6
497.37	827.876
497.5	805.85
497.63	790.95
497.76	817.074
497.89	879.2239999999999
498.02	844.126
498.15	740.176
498.27	817.876
498.4	865.9
498.53	882.676
498.66	833.55
498.79	865.876
498.92	782.076
499.05	830.324
499.17	817.65
499.3	855.4739999999999
499.43	901.7760000000001
499.56	840.524
499.69	766.2520000000001
499.82	833.35
499.95	799.7
500.07	791.874
500.2	819.324
500.33	858.476
500.46	957.25
500.59	823.7520000000001
500.72	829.0260000000001
500.85	872.698
500.97	871.574
501.1	867.0260000000001
501.23	784.3520000000001
501.36	831.126
501.49	889.424
501.62	841.726
501.75	824.326
501.87	870.874
502.0	769.7239999999999
502.13	833.15
502.26	831.0
502.39	800.95
502.52	806.5260000000001
502.64	769.4979999999999
502.77	792.5
502.9	848.726
503.03	820.226
503.16	793.7239999999999
503.29	791.65
503.42	866.9739999999999
503.54	824.476
503.67	822.0020000000001
503.8	825.848
503.93	864.574
504.06	784.15
504.19	813.576
504.31	869.326
504.44	834.6
504.57	840.426
504.7	831.552
504.83	775.1
504.96	838.0
505.08	820.25
505.21	824.55
505.34	917.876
505.47	876.05
505.6	857.6
505.73	870.626
505.85	861.7760000000001
505.98	949.35
506.11	821.824
506.24	788.9
506.37	789.824
506.5	827.25
506.62	861.8979999999999
506.75	803.4
506.88	787.3979999999999
507.01	836.0
507.14	772.6479999999999
507.27	813.576
507.39	788.05
507.52	795.7239999999999
507.65	802.452
507.78	840.15
507.91	789.2760000000001
508.04	877.726
508.16	872.226
508.29	834.198
508.42	805.2760000000001
508.55	789.4
508.68	793.0
508.81	860.9739999999999
508.93	796.376
509.06	802.85
509.19	855.65
509.32	845.05
509.45	828.95
509.57	839.774
509.7	789.2239999999999
509.83	818.4
509.96	779.2520000000001
510.09	818.7760000000001
510.22	815.75
510.34	816.798
510.47	812.174
510.6	919.524
510.73	834.074
510.86	839.2239999999999
510.98	808.25
511.11	804.674
511.24	866.726
511.37	847.876
511.5	808.152
511.63	831.4
511.75	827.674
511.88	816.774
512.01	839.8520000000001
512.14	827.1
512.27	837.024
512.39	815.024
512.52	807.7520000000001
512.65	830.95
512.78	791.85
512.91	819.45
513.03	823.176
513.16	859.802
513.29	826.4
513.42	805.2239999999999
513.55	783.924
513.67	841.374
513.8	771.0260000000001
513.93	796.676
514.06	797.774
514.19	836.2
514.31	836.926
514.44	856.5
514.57	810.7
514.7	829.3
514.83	872.4739999999999
514.95	800.1479999999999
515.08	828.274
515.21	848.798
515.34	831.1479999999999
515.47	821.2760000000001
515.59	792.824
515.72	842.024
515.85	845.5
515.98	873.55
516.11	832.0260000000001
516.23	852.926
516.36	885.8
516.49	842.1020000000001
516.62	825.95
516.75	878.924
516.87	878.7479999999999
517.0	797.4
517.13	847.5
517.26	874.326
517.39	844.124
517.51	760.174
517.64	820.7239999999999
517.77	894.5
517.9	791.7239999999999
518.02	818.674
518.15	788.5
518.28	745.126
518.41	818.0020000000001
518.54	823.452
518.66	825.65
518.79	784.0260000000001
518.92	801.324
519.05	791.35
519.18	813.9979999999999
519.3	847.35
519.43	773.274
519.56	791.25
519.69	799.3
519.81	865.0
519.94	804.676
520.07	751.95
520.2	799.65
520.33	829.6
520.45	877.7
520.58	832.902
520.71	840.826
520.84	866.7760000000001
520.96	839.4739999999999
521.09	819.848
521.22	798.5260000000001
521.35	855.0260000000001
521.48	849.226
521.6	798.376
521.73	822.55
521.86	876.65
521.99	899.75
522.11	831.676
522.24	816.926
522.37	846.774
522.5	832.374
522.62	873.524
522.75	763.7
522.88	831.0260000000001
523.01	799.05
523.14	843.226
523.26	831.65
523.39	881.426
523.52	801.374
523.65	906.826
523.77	850.726
523.9	823.25
524.03	811.174
524.16	809.274
524.28	805.476
524.41	808.1020000000001
524.54	817.2
524.67	778.376
524.79	804.376
524.92	842.924
525.05	892.5260000000001
525.18	785.25
525.31	855.75
525.43	782.952
525.56	930.95
525.69	800.948
525.82	755.1479999999999
525.94	856.826
526.07	862.95
526.2	843.1
526.33	857.924
526.45	940.476
526.58	913.826
526.71	837.802
526.84	818.324
526.96	828.6
527.09	791.85
527.22	807.2760000000001
527.35	808.726
527.47	776.2239999999999
527.6	890.4
527.73	787.198
527.86	851.976
527.98	841.326
528.11	848.048
528.24	793.674
528.37	812.85
528.49	780.176
528.62	821.0
528.75	851.3
528.88	795.702
529.0	849.402
529.13	870.876
529.26	825.376
529.39	850.802
529.51	951.152
529.64	921.35
529.77	795.226
529.9	808.85
530.02	809.676
530.15	793.0
530.28	753.7
530.4	788.826
530.53	815.326
530.66	833.2239999999999
530.79	801.424
530.91	817.476
531.04	800.302
531.17	816.274
531.3	815.202
531.42	816.698
531.55	829.3979999999999
531.68	885.076
531.81	795.6020000000001
531.93	818.098
532.06	827.95
532.19	783.626
532.31	813.626
532.44	807.7760000000001
532.57	843.924
532.7	795.824
532.82	826.0020000000001
532.95	849.8
533.08	883.926
533.21	851.424
533.33	790.9739999999999
533.46	796.326
533.59	806.676
533.71	928.326
533.84	833.524
533.97	802.726
534.1	801.2
534.22	783.95
534.35	815.476
534.48	822.726
534.61	844.024
534.73	755.35
534.86	785.976
534.99	831.2
535.11	874.374
535.24	833.574
535.37	793.2479999999999
535.5	780.1
535.62	785.4
535.75	875.948
535.88	825.376
536.0	793.1
536.13	798.3520000000001
536.26	804.3520000000001
536.39	794.726
536.51	771.798
536.64	836.576
536.77	814.3979999999999
536.89	813.452
537.02	822.774
537.15	840.374
537.28	820.45
537.4	832.4
537.53	799.926
537.66	867.1
537.78	827.174
537.91	787.374
538.04	795.726
538.17	853.524
538.29	836.126
538.42	892.1
538.55	873.1020000000001
538.67	845.4
538.8	794.2
538.93	833.75
539.05	821.05
539.18	881.376
539.31	855.2
539.44	828.198
539.56	748.924
539.69	807.774
539.82	803.2760000000001
539.94	812.676
540.07	788.6479999999999
540.2	883.176
540.32	790.626
540.45	812.348
540.58	806.226
540.71	863.55
540.83	769.174
540.96	800.624
541.09	807.674
541.21	890.95
541.34	878.076
541.47	789.848
541.59	816.95
541.72	893.5020000000001
541.85	961.824
541.98	871.948
542.1	816.0260000000001
542.23	837.676
542.36	938.25
542.48	831.424
542.61	816.5
542.74	779.7
542.86	801.35
542.99	810.198
543.12	794.274
543.24	827.174
543.37	761.65
543.5	810.3
543.62	791.948
543.75	810.824
543.88	808.35
544.01	829.876
544.13	839.85
544.26	847.126
544.39	793.2
544.51	793.85
544.64	778.848
544.77	840.374
544.89	796.824
545.02	820.9
545.15	792.0020000000001
545.27	900.3
545.4	870.35
545.53	843.45
545.65	840.226
545.78	750.976
545.91	776.2
546.03	804.074
546.16	812.75
546.29	800.0020000000001
546.41	775.2
546.54	805.774
546.67	785.2239999999999
546.79	850.976
546.92	889.4739999999999
547.05	769.15
547.17	819.9739999999999
547.3	790.976
547.43	843.948
547.56	780.124
547.68	808.924
547.81	771.3
547.94	840.124
548.06	803.902
548.19	777.726
548.32	873.326
548.44	828.374
548.57	833.45
548.7	851.95
548.82	860.052
548.95	845.274
549.08	811.174
549.2	806.9
549.33	906.1
549.45	828.0260000000001
549.58	805.376
549.71	771.076
549.83	861.798
549.96	776.25
550.09	817.676
550.21	797.05
550.34	826.376
550.47	807.9
550.59	802.076
550.72	742.8
550.85	812.7520000000001
550.97	875.6479999999999
551.1	795.5
551.23	808.5
551.35	882.1
551.48	832.576
551.61	805.876
551.73	798.202
551.86	882.698
551.99	878.1
552.11	820.574
552.24	851.25
552.37	827.876
552.49	786.624
552.62	797.524
552.75	844.952
552.87	797.424
553.0	795.4739999999999
553.12	824.624
553.25	802.65
553.38	835.7
553.5	869.074
553.63	808.65
553.76	754.848
553.88	815.35
554.01	807.05
554.14	807.2520000000001
554.26	837.2
554.39	890.95
554.52	816.924
554.64	812.924
554.77	792.2520000000001
554.89	846.7760000000001
555.02	863.35
555.15	832.65
555.27	813.176
555.4	818.0
555.53	870.7479999999999
555.65	806.7
555.78	778.924
555.91	843.876
556.03	890.902
556.16	783.024
556.29	819.076
556.41	877.426
556.54	873.074
556.66	813.476
556.79	794.0260000000001
556.92	820.924
557.04	828.524
557.17	795.5
557.3	797.9739999999999
557.42	802.0260000000001
557.55	810.2760000000001
557.67	827.2520000000001
557.8	804.876
557.93	819.0020000000001
558.05	822.45
558.18	782.15
558.31	818.802
558.43	856.924
558.56	834.124
558.68	811.75
558.81	785.4739999999999
558.94	804.524
559.06	923.426
559.19	803.048
559.32	795.874
559.44	774.626
559.57	816.576
559.69	783.202
559.82	783.5260000000001
559.95	794.35
560.07	799.95
560.2	739.624
560.33	811.2239999999999
560.45	825.5
560.58	761.7239999999999
560.7	810.126
560.83	771.524
560.96	801.176
561.08	807.6
561.21	828.7
561.33	774.95
561.46	760.624
561.59	850.0
561.71	792.35
561.84	821.2
561.97	776.65
562.09	838.024
562.22	786.576
562.34	780.076
562.47	843.5
562.6	829.95
562.72	805.6020000000001
562.85	810.9979999999999
562.97	805.074
563.1	799.8
563.23	779.176
563.35	782.45
563.48	822.574
563.6	807.726
563.73	837.074
563.86	764.4739999999999
563.98	785.9
564.11	809.0260000000001
564.23	798.65
564.36	867.924
564.49	808.448
564.61	868.098
564.74	817.25
564.86	787.25
564.99	861.076
565.12	838.926
565.24	860.5260000000001
565.37	850.75
565.49	858.7239999999999
565.62	877.324
565.75	843.9
565.87	781.2
566.0	942.05
566.12	866.45
566.25	820.2520000000001
566.38	844.7760000000001
566.5	819.976
566.63	854.024
566.75	801.826
566.88	782.774
567.01	777.426
567.13	800.0260000000001
567.26	802.2
567.38	783.574
567.51	853.326
567.64	784.774
567.76	830.35
567.89	824.4
568.01	778.976
568.14	771.7760000000001
568.26	811.876
568.39	813.3
568.52	808.75
568.64	841.476
568.77	797.274
568.89	789.576
569.02	791.076
569.15	808.4739999999999
569.27	799.826
569.4	827.9739999999999
569.52	842.2
569.65	797.15
569.77	797.948
569.9	756.926
570.03	757.876
570.15	873.074
570.28	809.8979999999999
570.4	802.876
570.53	800.176
570.66	867.55
570.78	852.95
570.91	817.126
571.03	771.074
571.16	808.65
571.28	766.25
571.41	754.574
571.54	758.924
571.66	750.8
571.79	778.426
571.91	784.4
572.04	763.902
572.16	814.6
572.29	834.2
572.42	785.6020000000001
572.54	822.424
572.67	782.476
572.79	820.35
572.92	806.4
573.04	835.074
573.17	853.5
573.29	815.05
573.42	789.926
573.55	837.8
573.67	829.5
573.8	806.324
573.92	774.55
574.05	812.85
574.17	861.048
574.3	803.65
574.43	792.05
574.55	788.802
574.68	812.9739999999999
574.8	792.9739999999999
574.93	794.626
575.05	758.2239999999999
575.18	793.9739999999999
575.3	794.95
575.43	834.876
575.56	857.85
575.68	825.226
575.81	788.924
575.93	773.3
576.06	828.5260000000001
576.18	839.7760000000001
576.31	799.374
576.43	782.5
576.56	887.548
576.69	869.424
576.81	818.674
576.94	790.374
577.06	809.0
577.19	842.5260000000001
577.31	815.8
577.44	826.2
577.56	854.35
577.69	822.926
577.82	808.824
577.94	781.3
578.07	756.124
578.19	829.024
578.32	839.95
578.44	784.824
578.57	793.874
578.69	851.5260000000001
578.82	814.95
578.94	843.95
579.07	859.2
579.19	845.824
579.32	824.574
579.45	826.576
579.57	807.65
579.7	774.876
579.82	819.9
579.95	795.298
580.07	873.902
580.2	800.924
580.32	807.374
580.45	837.9739999999999
580.57	841.25
580.7	810.75
580.82	828.8
580.95	834.9
581.08	770.076
581.2	852.626
581.33	802.9739999999999
581.45	825.6
581.58	814.55
581.7	826.774
581.83	739.0260000000001
581.95	821.7760000000001
582.08	837.25
582.2	800.35
582.33	809.0260000000001
582.45	786.85
582.58	796.8979999999999
582.7	827.976
582.83	784.124
582.95	807.174
583.08	851.5
583.21	858.5260000000001
583.33	819.876
583.46	789.298
583.58	767.676
583.71	842.1
583.83	825.65
583.96	825.7760000000001
584.08	839.076
584.21	842.4
584.33	836.2479999999999
584.46	800.9
584.58	770.45
584.71	846.7
584.83	840.698
584.96	811.2239999999999
585.08	791.826
585.21	907.7760000000001
585.33	872.9
585.46	843.302
585.58	851.7
585.71	794.676
585.83	815.35
585.96	854.9
586.08	832.876
586.21	833.85
586.33	847.624
586.46	766.176
586.59	837.452
586.71	780.9
586.84	831.1020000000001
586.96	817.45
587.09	757.75
587.21	793.45
587.34	846.8979999999999
587.46	785.1
587.59	763.826
587.71	806.574
587.84	792.0
587.96	756.124
588.09	767.952
588.21	832.7
588.34	802.45
588.46	822.652
588.59	788.05
588.71	827.7
588.84	823.3979999999999
588.96	807.3979999999999
589.09	902.5260000000001
589.21	811.35
589.34	785.4739999999999
589.46	804.6020000000001
589.59	822.126
589.71	858.826
589.84	767.15
589.96	785.25
590.09	804.5
590.21	842.824
590.34	824.25
590.46	820.826
590.59	792.6479999999999
590.71	800.1479999999999
590.84	848.7239999999999
590.96	779.674
591.09	833.524
591.21	816.424
591.34	793.95
591.46	799.174
591.59	870.0260000000001
591.71	841.45
591.83	806.624
591.96	760.6020000000001
592.08	794.7760000000001
592.21	838.476
592.33	816.374
592.46	796.024
592.58	824.576
592.71	853.2
592.83	889.65
592.96	841.7
593.08	866.676
593.21	780.45
593.33	772.2
593.46	800.45
593.58	799.576
593.71	845.65
593.83	858.626
593.96	781.624
594.08	924.476
594.21	807.95
594.33	794.45
594.46	781.6
594.58	763.076
594.71	741.5020000000001
594.83	820.15
594.96	807.698
595.08	963.926
595.2	847.0
595.33	824.35
595.45	784.6
595.58	899.524
595.7	832.4
595.83	797.676
595.95	812.65
596.08	825.874
596.2	769.824
596.33	763.1020000000001
596.45	809.8
596.58	778.4
596.7	767.626
596.83	795.674
596.95	792.35
597.08	814.05
597.2	773.124
597.32	786.9
597.45	818.4979999999999
597.57	803.424
597.7	840.7239999999999
597.82	795.124
597.95	812.176
598.07	812.024
598.2	818.3979999999999
598.32	809.826
598.45	799.098
598.57	854.4
598.7	868.024
598.82	798.524
598.94	796.9
599.07	850.9
599.19	812.7
599.32	790.4
599.44	724.874
599.57	846.8
599.69	824.6
599.82	801.75
599.94	775.826
600.07	850.676
600.19	830.2760000000001
600.31	785.95
600.44	845.25
600.56	921.024
600.69	902.4739999999999
600.81	789.402
600.94	799.174
601.06	816.924
601.19	837.7760000000001
601.31	857.924
601.44	767.576
601.56	869.7
601.68	845.152
601.81	827.9
601.93	820.626
602.06	838.926
602.18	777.05
602.31	805.926
602.43	865.952
602.56	846.874
602.68	812.126
602.8	811.95
602.93	820.25
603.05	785.324
603.18	811.4
603.3	773.376
603.43	778.35
603.55	807.4
603.68	827.75
603.8	823.448
603.92	816.0
604.05	795.126
604.17	789.65
604.3	772.076
604.42	792.6
604.55	800.9739999999999
604.67	839.0
604.79	788.674
604.92	800.626
605.04	795.15
605.17	795.5
605.29	791.7239999999999
605.42	785.8520000000001
605.54	873.0020000000001
605.66	824.476
605.79	831.152
605.91	805.5260000000001
606.04	809.75
606.16	789.376
606.29	821.25
606.41	776.074
606.53	799.2760000000001
606.66	758.25
606.78	800.674
606.91	794.124
607.03	794.9
607.16	790.0020000000001
607.28	773.076
607.4	816.9739999999999
607.53	828.552
607.65	773.626
607.78	781.076
607.9	810.7239999999999
608.03	911.824
608.15	822.676
608.27	827.85
608.4	768.25
608.52	824.9
608.65	807.6
608.77	843.452
608.89	812.324
609.02	875.576
609.14	886.476
609.27	831.126
609.39	844.25
609.52	786.45
609.64	747.7760000000001
609.76	788.574
609.89	801.952
610.01	866.374
610.14	841.6
610.26	805.6
610.38	777.674
610.51	848.124
610.63	795.452
610.76	772.15
610.88	826.25
611.01	870.45
611.13	905.374
611.25	844.5260000000001
611.38	778.226
611.5	806.4
611.63	833.9
611.75	817.4979999999999
611.87	827.05
612.0	793.9
612.12	852.174
612.25	797.4
612.37	784.574
612.49	874.45
612.62	856.274
612.74	876.426
612.87	812.976
612.99	812.2239999999999
613.11	758.174
613.24	798.9
613.36	799.4
613.49	818.5260000000001
613.61	814.326
613.73	794.774
613.86	849.626
613.98	782.9739999999999
614.11	843.426
614.23	845.574
614.35	856.848
614.48	857.376
614.6	821.45
614.72	808.6
614.85	828.2239999999999
614.97	819.4739999999999
615.1	820.05
615.22	802.2
615.34	817.676
615.47	865.4
615.59	788.25
615.72	808.95
615.84	820.7239999999999
615.96	789.574
616.09	894.6020000000001
616.21	807.424
616.34	792.9
616.46	805.75
616.58	839.198
616.71	837.126
616.83	847.2239999999999
616.95	843.1
617.08	835.45
617.2	807.8
617.33	768.75
617.45	799.774
617.57	834.6020000000001
617.7	820.0
617.82	792.0020000000001
617.95	817.176
618.07	881.8
618.19	830.95
618.32	821.902
618.44	793.076
618.56	774.424
618.69	748.126
618.81	760.25
618.94	839.626
619.06	806.176
619.18	805.15
619.31	772.4
619.43	772.95
619.55	824.626
619.68	825.7479999999999
619.8	773.524
619.92	828.124
620.05	936.674
620.17	865.65
620.3	812.25
620.42	833.598
620.54	850.076
620.67	790.452
620.79	815.348
620.91	827.4
621.04	872.85
621.16	799.176
621.29	786.124
621.41	758.448
621.53	794.15
621.66	800.774
621.78	795.024
621.9	847.35
622.03	902.8
622.15	817.376
622.27	807.174
622.4	822.574
622.52	791.8520000000001
622.64	791.826
622.77	765.2760000000001
622.89	823.624
623.02	846.6
623.14	823.5
623.26	838.7
623.39	828.452
623.51	860.576
623.63	795.402
623.76	776.6
623.88	869.6
624.0	813.55
624.13	775.476
624.25	775.6479999999999
624.37	770.7239999999999
624.5	854.85
624.62	829.0
624.75	771.048
624.87	766.0260000000001
624.99	831.75
625.12	789.0
625.24	797.8
625.36	883.9739999999999
625.49	844.95
625.61	832.2
625.73	815.774
625.86	854.45
625.98	814.2
626.1	784.476
626.23	763.7479999999999
626.35	824.5
626.47	796.3
626.6	774.75
626.72	788.574
626.84	788.824
626.97	826.25
627.09	804.25
627.21	802.524
627.34	922.85
627.46	901.95
627.58	808.574
627.71	823.426
627.83	846.45
627.95	773.15
628.08	809.9
628.2	845.65
628.32	759.574
628.45	733.652
628.57	744.726
628.69	779.374
628.82	826.25
628.94	866.2
629.06	807.2
629.19	788.976
629.31	841.05
629.43	775.424
629.56	821.05
629.68	810.126
629.8	852.574
629.93	772.076
630.05	778.476
630.17	769.85
630.3	792.95
630.42	779.95
630.54	826.0
630.67	809.15
630.79	785.874
630.91	927.576
631.04	827.326
631.16	815.2
631.28	819.35
631.41	783.15
631.53	767.9
631.65	811.174
631.78	830.174
631.9	808.226
632.02	806.15
632.14	731.524
632.27	866.598
632.39	810.676
632.51	789.6
632.64	852.202
632.76	806.126
632.88	789.05
633.01	815.0020000000001
633.13	798.574
633.25	813.25
633.38	912.676
633.5	757.7239999999999
633.62	756.65
633.75	750.326
633.87	739.1
633.99	816.024
634.11	762.55
634.24	790.374
634.36	798.2
634.48	797.024
634.61	788.826
634.73	829.65
634.85	785.4739999999999
634.98	780.574
635.1	791.574
635.22	801.948
635.35	918.2
635.47	816.674
635.59	797.7239999999999
635.71	830.3520000000001
635.84	852.6
635.96	790.624
636.08	838.624
636.21	786.05
636.33	818.374
636.45	803.15
636.58	778.2239999999999
636.7	747.85
636.82	826.75
636.94	781.1
637.07	751.726
637.19	835.798
637.31	832.0260000000001
637.44	829.6020000000001
637.56	753.826
637.68	819.25
637.81	820.024
637.93	809.024
638.05	765.176
638.17	853.174
638.3	914.226
638.42	801.95
638.54	777.674
638.67	800.2239999999999
638.79	807.15
638.91	774.3
639.03	794.9979999999999
639.16	789.7239999999999
639.28	803.5
639.4	799.424
639.53	786.574
639.65	834.374
639.77	800.476
639.89	806.25
640.02	801.298
640.14	808.274
640.26	765.824
640.39	827.7
640.51	779.348
640.63	820.598
640.75	847.652
640.88	798.374
641.0	780.4
641.12	774.7479999999999
641.24	879.074
641.37	793.324
641.49	769.348
641.61	903.3979999999999
641.74	778.902
641.86	815.8
641.98	764.9
642.1	819.3
642.23	827.926
642.35	786.85
642.47	816.676
642.6	813.374
642.72	835.4739999999999
642.84	743.6020000000001
642.96	764.85
643.09	773.85
643.21	763.652
643.33	767.476
643.45	771.076
643.58	846.9
643.7	875.2760000000001
643.82	786.298
643.94	789.726
644.07	811.7239999999999
644.19	817.15
644.31	813.926
644.44	806.176
644.56	794.052
644.68	757.45
644.8	766.1
644.93	761.0260000000001
645.05	772.4
645.17	814.2760000000001
645.29	809.376
645.42	814.174
645.54	803.35
645.66	826.4739999999999
645.78	800.4
645.91	783.05
646.03	827.8520000000001
646.15	873.0260000000001
646.27	785.65
646.4	811.15
646.52	834.35
646.64	844.198
646.76	793.0260000000001
646.89	745.426
647.01	834.948
647.13	823.826
647.25	834.426
647.38	790.598
647.5	768.3979999999999
647.62	837.576
647.74	755.902
647.87	767.2
647.99	810.076
648.11	829.926
648.23	795.074
648.36	753.4
648.48	862.15
648.6	807.824
648.72	774.7760000000001
648.85	766.348
648.97	850.1
649.09	822.4739999999999
649.21	785.5
649.34	813.376
649.46	816.7
649.58	817.302
649.7	824.2760000000001
649.83	783.424
649.95	818.95
650.07	828.0260000000001
650.19	837.624
650.32	806.726
650.44	854.1
650.56	822.7
650.68	786.15
650.81	785.024
650.93	784.1020000000001
651.05	863.174
651.17	775.5
651.29	822.424
651.42	795.874
651.54	828.848
651.66	766.2760000000001
651.78	773.074
651.91	823.35
652.03	916.75
652.15	826.7760000000001
652.27	775.35
652.4	814.2760000000001
652.52	798.076
652.64	815.426
652.76	784.574
652.88	894.15
653.01	810.326
653.13	767.2
653.25	737.0260000000001
653.37	830.2760000000001
653.5	841.674
653.62	823.95
653.74	751.45
653.86	837.8
653.98	827.774
654.11	770.4
654.23	792.374
654.35	786.4
654.47	915.702
654.6	792.576
654.72	788.3979999999999
654.84	764.476
654.96	843.65
655.08	788.626
655.21	816.976
655.33	795.7760000000001
655.45	844.824
655.57	808.024
655.7	800.874
655.82	845.35
655.94	880.674
656.06	828.35
656.18	763.45
656.31	856.5
656.43	830.2239999999999
656.55	775.426
656.67	792.65
656.79	802.1
656.92	853.95
657.04	818.15
657.16	788.174
657.28	918.1
657.4	811.348
657.53	833.55
657.65	795.524
657.77	854.924
657.89	852.8
658.01	790.624
658.14	767.2479999999999
658.26	832.4
658.38	789.324
658.5	764.45
658.62	764.848
658.75	923.55
658.87	842.7760000000001
658.99	828.2
659.11	769.676
659.23	848.226
659.36	905.874
659.48	850.15
659.6	826.0
659.72	814.6020000000001
659.84	807.926
659.97	829.55
660.09	838.576
660.21	908.874
660.33	851.674
660.45	752.826
660.58	727.424
660.7	777.7
660.82	790.95
660.94	758.174
661.06	799.624
661.19	861.626
661.31	840.476
661.43	803.3
661.55	797.0260000000001
661.67	840.2760000000001
661.8	872.174
661.92	807.2479999999999
662.04	813.476
662.16	809.924
662.28	863.202
662.4	808.95
662.53	809.124
662.65	825.676
662.77	779.3
662.89	813.774
663.01	781.05
663.14	801.326
663.26	835.298
663.38	800.576
663.5	766.45
663.62	783.124
663.74	808.4
663.87	782.5260000000001
663.99	811.426
664.11	844.674
664.23	918.098
664.35	798.874
664.48	783.9
664.6	799.598
664.72	792.7
664.84	759.95
664.96	791.9739999999999
665.08	850.65
665.21	823.05
665.33	832.85
665.45	749.6
665.57	801.0
665.69	882.876
665.81	804.05
665.94	768.298
666.06	772.126
666.18	822.624
666.3	789.052
666.42	779.05
666.54	813.198
666.67	830.7
666.79	774.424
666.91	837.124
667.03	789.55
667.15	759.202
667.27	789.326
667.4	764.9739999999999
667.52	790.2479999999999
667.64	839.926
667.76	786.75
667.88	763.426
668.0	836.374
668.13	842.152
668.25	770.2479999999999
668.37	771.65
668.49	786.9739999999999
668.61	848.2
668.73	798.424
668.85	807.476
668.98	823.876
669.1	812.324
669.22	786.326
669.34	792.826
669.46	840.374
669.58	792.7
669.71	808.7
669.83	803.35
669.95	790.576
670.07	805.074
670.19	784.7
670.31	793.126
670.43	787.05
670.56	820.574
670.68	854.374
670.8	823.176
670.92	807.9979999999999
671.04	863.448
671.16	790.15
671.28	782.226
671.41	793.374
671.53	837.7
671.65	789.174
671.77	790.1
671.89	943.9
672.01	891.5260000000001
672.13	841.2239999999999
672.26	773.226
672.38	811.126
672.5	773.8
672.62	797.75
672.74	818.324
672.86	802.274
672.98	815.126
673.11	804.924
673.23	811.4
673.35	864.45
673.47	803.9
673.59	803.55
673.71	767.9
673.83	827.35
673.96	911.85
674.08	803.35
674.2	764.324
674.32	797.1020000000001
674.44	805.8
674.56	822.802
674.68	817.7760000000001
674.8	840.05
674.93	808.1
675.05	796.126
675.17	810.25
675.29	840.7
675.41	848.35
675.53	800.826
675.65	794.8
675.77	795.674
675.9	853.598
676.02	781.076
676.14	770.45
676.26	874.726
676.38	902.45
676.5	811.65
676.62	830.15
676.74	766.626
676.87	785.3
676.99	815.85
677.11	851.35
677.23	818.25
677.35	836.824
677.47	759.124
677.59	778.65
677.71	826.0
677.83	836.926
677.96	808.076
678.08	802.2760000000001
678.2	804.0
678.32	771.874
678.44	800.25
678.56	801.226
678.68	939.45
678.8	843.826
678.93	793.174
679.05	815.85
679.17	801.6
679.29	856.8
679.41	805.924
679.53	778.45
679.65	782.7239999999999
679.77	810.6
679.89	796.926
680.01	833.424
680.14	836.9739999999999
680.26	749.4
680.38	788.626
680.5	833.35
680.62	886.876
680.74	829.576
680.86	792.824
680.98	810.552
681.1	830.2760000000001
681.22	902.4
681.35	785.874
681.47	792.7760000000001
681.59	778.2239999999999
681.71	882.424
681.83	804.7760000000001
681.95	779.2239999999999
682.07	863.1
682.19	821.448
682.31	791.324
682.43	766.4739999999999
682.56	842.85
682.68	768.598
682.8	779.65
682.92	825.326
683.04	809.426
683.16	796.45
683.28	774.95
683.4	831.3
683.52	805.7760000000001
683.64	827.3
683.76	776.8520000000001
683.89	788.926
684.01	800.85
684.13	860.826
684.25	808.5
684.37	811.2760000000001
684.49	846.676
684.61	797.55
684.73	808.876
684.85	798.802
684.97	775.524
685.09	864.6
685.21	781.174
685.34	805.126
685.46	933.552
685.58	829.55
685.7	818.124
685.82	844.7239999999999
685.94	779.65
686.06	778.848
686.18	771.798
686.3	795.9
686.42	768.074
686.54	834.976
686.66	772.15
686.79	873.3
686.91	833.424
687.03	920.424
687.15	837.576
687.27	802.65
687.39	805.7
687.51	887.376
687.63	818.626
687.75	849.676
687.87	834.426
687.99	879.674
688.11	776.576
688.23	825.848
688.35	858.85
688.48	830.3
688.6	775.8520000000001
688.72	795.15
688.84	820.798
688.96	841.9739999999999
689.08	806.376
689.2	803.6
689.32	925.4739999999999
689.44	823.598
689.56	763.3
689.68	785.626
689.8	800.676
689.92	778.324
690.04	790.548
690.16	839.574
690.28	827.1
690.41	828.85
690.53	781.55
690.65	844.876
690.77	862.55
690.89	856.5020000000001
691.01	808.95
691.13	788.324
691.25	770.902
691.37	798.95
691.49	752.824
691.61	756.126
691.73	883.7239999999999
691.85	808.676
691.97	791.476
692.09	774.5260000000001
692.21	849.402
692.33	875.85
692.45	824.1
692.57	788.652
692.7	811.7760000000001
692.82	832.4
692.94	749.452
693.06	783.052
693.18	815.074
693.3	791.8979999999999
693.42	784.076
693.54	818.55
693.66	832.176
693.78	828.7760000000001
693.9	793.124
694.02	811.45
694.14	826.924
694.26	793.7479999999999
694.38	817.5260000000001
694.5	822.476
694.62	824.426
694.74	770.826
694.86	770.7760000000001
694.98	812.7760000000001
695.1	824.2
695.22	856.326
695.34	785.7
695.46	784.3
695.58	791.6
695.71	820.274
695.83	785.5260000000001
695.95	787.374
696.07	865.95
696.19	777.15
696.31	785.626
696.43	773.15
696.55	886.85
696.67	820.7760000000001
696.79	787.9
696.91	803.5
697.03	784.926
697.15	883.324
697.27	812.85
697.39	781.176
697.51	840.824
697.63	778.774
697.75	781.574
697.87	809.674
697.99	763.024
698.11	736.274
698.23	766.7
698.35	784.902
698.47	790.8
698.59	818.3520000000001
698.71	793.3
698.83	849.374
698.95	774.874
699.07	813.65
699.19	789.0
699.31	803.8
699.43	772.702
699.55	830.826
699.67	792.1
699.79	789.7239999999999
699.91	783.7760000000001
700.03	811.15
700.15	805.676
700.27	771.45
700.39	801.4
700.51	763.524
700.63	796.024
700.75	792.524
700.87	820.826
700.99	789.0260000000001
701.11	826.124
701.24	802.676
701.36	845.876
701.48	844.2
701.6	829.5260000000001
701.72	777.25
701.84	870.674
701.96	820.626
702.08	805.35
702.2	887.226
702.32	839.024
702.44	836.65
702.56	798.976
702.68	801.0260000000001
702.8	810.924
702.92	899.5
703.04	870.226
703.16	813.9
703.28	820.876
703.4	801.576
703.52	825.302
703.64	823.126
703.76	823.2760000000001
703.88	793.45
704.0	783.1
704.12	803.226
704.24	853.1020000000001
704.36	818.1479999999999
704.48	817.524
704.6	766.576
704.72	799.924
704.84	794.75
704.96	827.7520000000001
705.07	813.8
705.19	772.85
705.31	794.574
705.43	836.476
705.55	783.4
705.67	830.376
705.79	812.7
705.91	747.05
706.03	804.0
706.15	815.05
706.27	796.9979999999999
706.39	790.55
706.51	777.652
706.63	785.674
706.75	831.5
706.87	818.024
706.99	865.676
707.11	809.9739999999999
707.23	795.55
707.35	823.55
707.47	808.152
707.59	840.024
707.71	851.1020000000001
707.83	799.076
707.95	838.826
708.07	801.9
708.19	929.75
708.31	818.426
708.43	774.55
708.55	825.6
708.67	864.874
708.79	815.0
708.91	842.824
709.03	820.426
709.15	856.524
709.27	783.0
709.39	817.926
709.51	800.3520000000001
709.63	828.324
709.75	834.3
709.87	768.0260000000001
709.99	845.0020000000001
710.11	789.926
710.23	784.8
710.35	765.95
710.47	912.4979999999999
710.58	864.698
710.7	857.4739999999999
710.82	861.426
710.94	814.024
711.06	802.574
711.18	817.35
711.3	788.024
711.42	856.5
711.54	810.652
711.66	836.25
711.78	782.626
711.9	837.75
712.02	875.2520000000001
712.14	782.676
712.26	759.7479999999999
712.38	859.35
712.5	867.8
712.62	795.5260000000001
712.74	785.2760000000001
712.86	786.226
712.98	846.976
713.1	781.976
713.22	764.924
713.34	811.85
713.45	785.1020000000001
713.57	820.2760000000001
713.69	775.35
713.81	793.424
713.93	819.5260000000001
714.05	801.1
714.17	757.274
714.29	871.374
714.41	855.674
714.53	791.626
714.65	822.85
714.77	810.3
714.89	770.7239999999999
715.01	855.824
715.13	777.226
715.25	812.7760000000001
715.37	776.4
715.49	759.4
715.61	827.348
715.72	825.85
715.84	856.7239999999999
715.96	797.202
716.08	797.65
716.2	875.376
716.32	853.074
716.44	799.9
716.56	805.3
716.68	816.8520000000001
716.8	898.9739999999999
716.92	864.074
717.04	817.926
717.16	836.25
717.28	807.55
717.4	798.1479999999999
717.52	812.3
717.63	787.6
717.75	815.55
717.87	807.826
717.99	828.4
718.11	798.802
718.23	873.702
718.35	830.65
718.47	814.2239999999999
718.59	755.774
718.71	809.126
718.83	790.3
718.95	835.076
719.07	771.3
719.19	804.652
719.3	797.952
719.42	819.5260000000001
719.54	801.2239999999999
719.66	822.9
719.78	814.95
719.9	749.452
720.02	806.874
720.14	822.824
720.26	845.048
720.38	833.948
720.5	784.376
720.62	736.424
720.74	809.226
720.85	810.5
720.97	872.05
721.09	904.426
721.21	800.4979999999999
721.33	873.1
721.45	822.274
721.57	829.1
721.69	779.774
721.81	757.65
721.93	872.324
722.05	824.55
722.16	778.6020000000001
722.28	748.5
722.4	788.324
722.52	863.874
722.64	874.25
722.76	778.0260000000001
722.88	830.024
723.0	836.1
723.12	793.5260000000001
723.24	816.426
723.36	753.024
723.47	853.2239999999999
723.59	821.0
723.71	794.95
723.83	828.424
723.95	792.6
724.07	804.626
724.19	828.126
724.31	889.5260000000001
724.43	781.126
724.55	742.274
724.66	776.374
724.78	943.948
724.9	781.174
725.02	777.0
725.14	788.15
725.26	809.2239999999999
725.38	747.9
725.5	804.576
725.62	818.624
725.74	805.574
725.85	802.074
725.97	813.976
726.09	869.2239999999999
726.21	1143.574
726.33	847.2479999999999
726.45	805.376
726.57	782.4739999999999
726.69	814.176
726.81	815.176
726.92	803.65
727.04	817.176
727.16	827.824
727.28	797.05
727.4	797.4739999999999
727.52	816.15
727.64	931.226
727.76	898.25
727.88	832.5260000000001
727.99	775.65
728.11	774.8979999999999
728.23	801.174
728.35	788.6
728.47	789.85
728.59	793.774
728.71	818.25
728.83	811.45
728.94	835.926
729.06	897.576
729.18	873.45
729.3	836.024
729.42	821.676
729.54	887.35
729.66	902.65
729.78	810.0260000000001
729.9	820.324
730.01	792.7239999999999
730.13	737.574
730.25	803.176
730.37	797.5
730.49	829.426
730.61	820.952
730.73	823.926
730.84	843.1
730.96	837.424
731.08	827.15
731.2	820.2520000000001
731.32	819.15
731.44	965.374
731.56	812.924
731.68	775.674
731.79	820.7760000000001
731.91	788.476
732.03	793.824
732.15	802.326
732.27	777.7239999999999
732.39	793.85
732.51	846.226
732.62	784.274
732.74	804.726
732.86	860.65
732.98	826.524
733.1	809.9739999999999
733.22	820.4
733.34	837.15
733.45	755.376
733.57	806.476
733.69	770.2
733.81	796.5020000000001
733.93	819.7
734.05	740.3
734.17	800.624
734.28	811.05
734.4	811.1020000000001
734.52	793.874
734.64	798.824
734.76	885.676
734.88	815.1020000000001
735.0	772.25
735.11	808.298
735.23	862.524
735.35	803.2760000000001
735.47	753.75
735.59	843.726
735.71	806.15
735.83	820.348
735.94	831.0
736.06	818.4
736.18	863.674
736.3	855.45
736.42	837.424
736.54	828.674
736.65	841.298
736.77	955.45
736.89	856.55
737.01	816.774
737.13	917.65
737.25	746.6
737.36	772.85
737.48	803.75
737.6	817.424
737.72	790.1
737.84	806.574
737.96	855.226
738.08	805.45
738.19	900.674
738.31	801.874
738.43	819.376
738.55	820.5
738.67	818.674
738.79	781.7479999999999
738.9	807.1
739.02	825.876
739.14	794.75
739.26	808.1
739.38	811.374
739.5	842.0
739.61	813.4
739.73	810.376
739.85	813.9
739.97	828.374
740.09	868.25
740.2	768.798
740.32	817.8
740.44	842.374
740.56	780.25
740.68	804.7239999999999
740.8	813.7760000000001
740.91	814.448
741.03	854.876
741.15	839.8
741.27	804.8
741.39	856.824
741.51	826.676
741.62	850.85
741.74	815.874
741.86	811.7479999999999
741.98	780.5
742.1	823.176
742.21	823.95
742.33	819.074
742.45	780.826
742.57	864.576
742.69	806.124
742.8	845.3
742.92	808.8
743.04	806.448
743.16	800.124
743.28	867.1
743.4	779.802
743.51	785.476
743.63	781.774
743.75	816.676
743.87	809.674
743.99	831.624
744.1	808.8
744.22	817.076
744.34	795.25
744.46	838.25
744.58	827.024
744.69	749.25
744.81	813.7239999999999
744.93	768.0
745.05	774.9979999999999
745.17	886.1020000000001
745.28	887.426
745.4	837.274
745.52	812.05
745.64	824.7239999999999
745.76	852.5260000000001
745.87	799.926
745.99	788.924
746.11	824.702
746.23	779.424
746.35	809.95
746.46	790.126
746.58	917.1020000000001
746.7	826.024
746.82	821.95
746.94	806.55
747.05	784.574
747.17	767.598
747.29	757.9
747.41	800.2239999999999
747.53	942.298
747.64	802.176
747.76	858.826
747.88	861.3
748.0	858.8
748.12	821.424
748.23	813.274
748.35	829.452
748.47	867.674
748.59	857.7
748.7	795.976
748.82	781.7760000000001
748.94	778.9
749.06	794.1
749.18	800.1
749.29	785.376
749.41	831.198
749.53	818.05
749.65	801.024
749.76	844.15
749.88	814.552
750.0	832.4
750.12	850.35
750.24	829.9739999999999
750.35	808.9739999999999
750.47	773.9
750.59	833.15
750.71	809.55
750.82	847.652
750.94	787.5
751.06	801.1
751.18	792.15
751.3	856.324
751.41	845.874
751.53	845.176
751.65	789.85
751.77	795.0
751.88	825.324
752.0	854.0020000000001
752.12	769.3520000000001
752.24	863.25
752.35	838.05
752.47	844.874
752.59	854.1
752.71	896.726
752.83	792.95
752.94	871.95
753.06	790.524
753.18	821.85
753.3	797.35
753.41	750.176
753.53	796.926
753.65	804.2239999999999
753.77	863.624
753.88	787.05
754.0	820.476
754.12	820.5
754.24	885.2
754.35	790.85
754.47	758.376
754.59	841.048
754.71	843.3
754.82	816.3
754.94	800.0020000000001
755.06	871.924
755.18	839.5
755.29	834.5260000000001
755.41	799.1479999999999
755.53	843.626
755.65	793.626
755.76	823.674
755.88	817.0
756.0	881.476
756.12	796.074
756.23	719.7760000000001
756.35	786.926
756.47	857.15
756.59	797.848
756.7	791.4739999999999
756.82	791.702
756.94	799.226
757.06	828.824
757.17	832.85
757.29	808.4739999999999
757.41	764.7
757.53	832.9739999999999
757.64	814.9
757.76	819.702
757.88	836.524
758.0	835.524
758.11	796.0020000000001
758.23	773.2760000000001
758.35	836.8
758.47	779.35
758.58	833.0260000000001
758.7	771.25
758.82	794.848
758.94	777.874
759.05	815.548
759.17	770.55
759.29	812.126
759.4	871.8520000000001
759.52	803.1
759.64	801.126
759.76	825.1
759.87	838.2239999999999
759.99	832.0
760.11	795.55
760.23	820.8
760.34	855.376
760.46	831.7520000000001
760.58	806.524
760.7	815.8
760.81	867.302
760.93	826.376
761.05	842.152
761.16	829.074
761.28	802.2
761.4	793.7
761.52	781.726
761.63	870.226
761.75	841.9
761.87	797.576
761.98	768.924
762.1	840.274
762.22	817.4739999999999
762.34	855.574
762.45	796.976
762.57	850.802
762.69	941.4739999999999
762.81	814.448
762.92	836.376
763.04	770.324
763.16	838.024
763.27	848.798
763.39	799.6479999999999
763.51	845.95
763.63	837.074
763.74	794.324
763.86	760.1
763.98	784.924
764.09	808.65
764.21	823.374
764.33	777.774
764.44	792.426
764.56	823.948
764.68	788.05
764.8	814.124
764.91	761.574
765.03	873.7760000000001
765.15	795.6
765.26	804.4
765.38	777.1
765.5	846.7760000000001
765.62	821.326
765.73	811.774
765.85	823.924
765.97	769.95
766.08	816.676
766.2	826.6
766.32	828.5
766.43	857.476
766.55	842.45
766.67	809.3979999999999
766.79	816.774
766.9	783.7
767.02	753.9
767.14	770.874
767.25	776.0260000000001
767.37	906.824
767.49	836.574
767.6	809.876
767.72	865.4
767.84	842.476
767.95	801.0
768.07	779.824
768.19	838.3
768.31	842.774
768.42	829.126
768.54	805.424
768.66	810.848
768.77	850.226
768.89	813.024
769.01	791.15
769.12	837.124
769.24	824.076
769.36	780.8520000000001
769.47	780.7520000000001
769.59	776.05
769.71	832.6479999999999
769.82	808.426
769.94	797.924
770.06	775.676
770.17	853.5260000000001
770.29	819.524
770.41	842.152
770.53	838.75
770.64	778.198
770.76	817.1
770.88	835.326
770.99	847.4739999999999
771.11	782.576
771.23	828.8
771.34	816.4
771.46	911.174
771.58	878.45
771.69	848.2239999999999
771.81	817.226
771.93	860.798
772.04	792.75
772.16	847.426
772.28	817.876
772.39	864.924
772.51	812.324
772.63	837.426
772.74	808.45
772.86	809.1020000000001
772.98	930.174
773.09	791.7760000000001
773.21	799.376
773.33	837.4
773.44	839.2239999999999
773.56	812.876
773.68	814.774
773.79	868.874
773.91	808.076
774.03	825.924
774.14	811.5260000000001
774.26	867.45
774.38	788.0
774.49	774.376
774.61	812.05
774.73	822.6
774.84	805.0
774.96	789.476
775.08	818.024
775.19	843.15
775.31	862.7
775.43	821.876
775.54	796.25
775.66	768.2760000000001
775.77	858.676
775.89	781.65
776.01	852.3
776.12	867.174
776.24	836.0
776.36	775.426
776.47	791.374
776.59	831.2
776.71	862.65
776.82	760.5260000000001
776.94	775.2520000000001
777.06	801.574
777.17	879.0260000000001
777.29	778.676
777.41	787.876
777.52	840.75
777.64	816.95
777.75	844.226
777.87	760.0
777.99	800.074
778.1	866.726
778.22	804.324
778.34	821.65
778.45	808.75
778.57	860.7239999999999
778.69	852.2
778.8	829.926
778.92	915.674
779.04	836.402
779.15	813.4739999999999
779.27	856.574
779.38	849.6
779.5	873.5260000000001
779.62	769.574
779.73	812.874
779.85	760.55
779.97	926.024
780.08	820.6
780.2	816.402
780.31	849.75
780.43	858.35
780.55	802.524
780.66	827.4
780.78	839.924
780.9	920.2
781.01	796.25
781.13	809.876
781.25	806.55
781.36	874.4739999999999
781.48	794.35
781.59	813.2760000000001
781.71	852.076
781.83	839.524
781.94	787.576
782.06	798.55
782.18	864.7760000000001
782.29	796.952
782.41	765.6020000000001
782.52	860.676
782.64	865.85
782.76	836.2
782.87	835.85
782.99	812.5260000000001
783.1	944.274
783.22	959.726
783.34	825.924
783.45	827.326
783.57	820.874
783.69	796.024
783.8	829.0
783.92	847.726
784.03	815.65
784.15	794.2479999999999
784.27	814.524
784.38	794.926
784.5	793.9
784.61	819.3
784.73	793.076
784.85	800.2239999999999
784.96	795.15
785.08	872.676
785.19	860.5260000000001
785.31	808.124
785.43	788.95
785.54	783.95
785.66	846.676
785.77	831.7239999999999
785.89	845.726
786.01	770.5
786.12	809.874
786.24	825.424
786.35	885.826
786.47	827.4739999999999
786.59	802.1
786.7	779.726
786.82	830.374
786.93	837.202
787.05	815.076
787.17	827.274
787.28	816.2
787.4	831.6
787.51	839.874
787.63	838.824
787.75	777.924
787.86	830.5260000000001
787.98	853.6
788.09	817.324
788.21	840.126
788.33	851.25
788.44	840.15
788.56	796.676
788.67	846.6
788.79	802.3520000000001
788.91	821.426
789.02	800.15
789.14	808.126
789.25	907.8
789.37	841.3
789.48	799.476
789.6	832.274
789.72	793.376
789.83	846.85
789.95	826.7760000000001
790.06	773.226
790.18	790.35
790.3	850.676
790.41	833.4739999999999
790.53	800.624
790.64	777.2760000000001
790.76	784.624
790.87	811.274
790.99	820.4
791.11	824.0260000000001
791.22	801.55
791.34	818.8
791.45	849.55
791.57	849.55
791.68	810.774
791.8	798.824
791.92	853.2520000000001
792.03	798.9
792.15	778.624
792.26	806.374
792.38	776.524
792.49	838.0
792.61	808.976
792.73	827.7
792.84	814.4739999999999
792.96	916.374
793.07	812.4739999999999
793.19	1589.774
793.3	901.4979999999999
793.42	857.7760000000001
793.54	754.926
793.65	775.6
793.77	952.926
793.88	814.95
794.0	769.076
794.11	818.9
794.23	762.076
794.34	827.35
794.46	759.176
794.58	772.124
794.69	904.126
794.81	894.876
794.92	786.75
795.04	782.6479999999999
795.15	893.15
795.27	855.074
795.39	821.6
795.5	791.874
795.62	787.9
795.73	801.95
795.85	788.676
795.96	832.374
796.08	875.426
796.19	798.5
796.31	805.5260000000001
796.42	777.2239999999999
796.54	791.124
796.66	856.15
796.77	779.424
796.89	768.452
797.0	864.0
797.12	744.75
797.23	799.9
797.35	830.176
797.46	855.05
797.58	870.5
797.69	832.2
797.81	807.6479999999999
797.93	811.9
798.04	797.4
798.16	795.5
798.27	827.076
798.39	777.7760000000001
798.5	771.6479999999999
798.62	768.7239999999999
798.73	771.424
798.85	888.4739999999999
798.96	819.126
799.08	838.5260000000001
799.19	851.5020000000001
799.31	821.174
799.43	816.626
799.54	795.052
799.66	820.676
799.77	850.726
799.89	785.75
800.0	754.774
800.12	800.926
800.23	865.702
800.35	898.574
800.46	753.624
800.58	742.05
800.69	808.55
800.81	800.626
800.92	773.5
801.04	816.2479999999999
801.16	752.75
801.27	760.174
801.39	780.2760000000001
801.5	794.176
801.62	808.65
801.73	859.174
801.85	851.7239999999999
801.96	775.6
802.08	862.876
802.19	861.324
802.31	798.3520000000001
802.42	811.924
802.54	887.35
802.65	862.074
802.77	779.8
802.88	839.174
803.0	766.374
803.11	918.774
803.23	819.476
803.34	813.1
803.46	836.7760000000001
803.57	777.4
803.69	847.0
803.8	773.074
803.92	860.7
804.03	803.574
804.15	824.35
804.26	841.274
804.38	851.15
804.5	787.226
804.61	822.876
804.73	814.65
804.84	818.126
804.96	744.174
805.07	809.2239999999999
805.19	779.424
805.3	833.9
805.42	859.426
805.53	813.7760000000001
805.65	787.8979999999999
805.76	765.7
805.88	794.5260000000001
805.99	825.0
806.11	837.624
806.22	785.124
806.34	798.45
806.45	813.676
806.57	798.126
806.68	847.6
806.8	743.6020000000001
806.91	778.626
807.03	769.45
807.14	753.4
807.26	759.674
807.37	762.1
807.49	824.5
807.6	787.076
807.72	878.7239999999999
807.83	887.874
807.95	823.074
808.06	830.95
808.17	825.402
808.29	844.9
808.4	779.676
808.52	811.202
808.63	824.0
808.75	828.126
808.86	812.674
808.98	830.35
809.09	788.674
809.21	825.476
809.32	792.076
809.44	837.698
809.55	772.624
809.67	823.174
809.78	780.626
809.9	839.6
810.01	873.774
810.13	789.75
810.24	841.25
810.36	772.402
810.47	837.802
810.59	819.2
810.7	838.6
810.82	857.7
810.93	777.376
811.05	787.152
811.16	794.55
811.27	791.426
811.39	819.874
811.5	850.726
811.62	764.774
811.73	745.826
811.85	827.424
811.96	817.826
812.08	841.5260000000001
812.19	819.448
812.31	835.75
812.42	803.95
812.54	794.924
812.65	852.45
812.77	860.024
812.88	851.8979999999999
813.0	846.1
813.11	837.45
813.22	789.15
813.34	794.35
813.45	819.85
813.57	896.7
813.68	902.65
813.8	821.626
813.91	780.652
814.03	807.876
814.14	898.2239999999999
814.26	798.774
814.37	815.274
814.49	814.874
814.6	793.65
814.71	794.05
814.83	813.85
814.94	775.0
815.06	802.8
815.17	815.524
815.29	810.802
815.4	775.174
815.52	898.076
815.63	806.274
815.75	790.95
815.86	824.2760000000001
815.97	776.574
816.09	819.45
816.2	835.65
816.32	838.774
816.43	770.7
816.55	827.45
816.66	801.7
816.78	899.4739999999999
816.89	818.4739999999999
817.0	817.4
817.12	791.65
817.23	784.2760000000001
817.35	851.2
817.46	821.726
817.58	787.176
817.69	904.126
817.81	815.226
817.92	849.1479999999999
818.03	819.826
818.15	822.05
818.26	785.1479999999999
818.38	777.424
818.49	810.024
818.61	829.75
818.72	778.4979999999999
818.83	1627.374
818.95	920.5260000000001
819.06	789.65
819.18	804.15
819.29	827.8
819.41	811.476
819.52	831.15
819.64	825.3
819.75	795.15
819.86	771.05
819.98	801.3
820.09	841.3
820.21	820.024
820.32	784.074
820.44	844.2239999999999
820.55	887.7520000000001
820.66	800.9
820.78	849.624
820.89	817.7
821.01	840.4
821.12	820.75
821.23	831.274
821.35	803.9739999999999
821.46	865.152
821.58	823.1
821.69	807.176
821.81	793.9979999999999
821.92	877.8
822.03	815.874
822.15	830.426
822.26	780.124
822.38	786.85
822.49	837.35
822.61	829.0
822.72	831.576
822.83	874.774
822.95	816.9739999999999
823.06	826.076
823.18	868.4739999999999
823.29	890.976
823.4	849.65
823.52	816.2239999999999
823.63	777.674
823.75	911.0260000000001
823.86	818.6020000000001
823.97	774.574
824.09	855.2239999999999
824.2	790.25
824.32	833.176
824.43	811.976
824.55	861.95
824.66	913.124
824.77	817.15
824.89	834.124
825.0	883.548
825.12	833.4739999999999
825.23	848.2760000000001
825.34	776.626
825.46	787.35
825.57	854.8520000000001
825.69	805.0
825.8	754.952
825.91	793.676
826.03	771.702
826.14	839.05
826.26	786.976
826.37	823.65
826.48	807.8
826.6	822.8
826.71	794.25
826.83	833.2760000000001
826.94	836.0020000000001
827.05	867.152
827.17	856.926
827.28	816.65
827.39	804.9739999999999
827.51	784.45
827.62	817.052
827.74	822.2
827.85	807.226
827.96	795.1479999999999
828.08	814.7
828.19	912.676
828.31	812.2239999999999
828.42	761.948
828.53	832.626
828.65	867.35
828.76	870.676
828.87	839.124
828.99	787.426
