Wavelength (nm)	Intensity
377.35	838.00
377.48	601.00
377.62	598.00
377.75	607.00
377.88	822.00
378.02	823.00
378.15	824.00
378.28	784.00
378.41	865.00
378.55	823.00
378.68	797.00
378.81	791.00
378.95	829.00
379.08	811.00
379.21	775.00
379.35	841.00
379.48	842.00
379.61	907.00
379.74	838.00
379.88	826.00
380.01	900.00
380.14	958.00
380.28	875.00
380.41	804.00
380.54	855.00
380.68	880.00
380.81	793.00
380.94	882.00
381.07	906.00
381.21	932.00
381.34	845.00
381.47	772.00
381.61	998.00
381.74	849.00
381.87	818.00
382.00	885.00
382.14	953.00
382.27	894.00
382.40	846.00
382.54	928.00
382.67	920.00
382.80	811.00
382.93	828.00
383.07	854.00
383.20	870.00
383.33	892.00
383.47	855.00
383.60	815.00
383.73	1014.00
383.86	879.00
384.00	831.00
384.13	834.00
384.26	904.00
384.40	912.00
384.53	865.00
384.66	921.00
384.79	882.00
384.93	857.00
385.06	848.00
385.19	885.00
385.33	993.00
385.46	899.00
385.59	842.00
385.72	876.00
385.86	817.00
385.99	854.00
386.12	856.00
386.25	824.00
386.39	894.00
386.52	904.00
386.65	848.00
386.79	843.00
386.92	853.00
387.05	948.00
387.18	809.00
387.32	840.00
387.45	896.00
387.58	880.00
387.71	850.00
387.85	843.00
387.98	885.00
388.11	894.00
388.25	884.00
388.38	872.00
388.51	907.00
388.64	905.00
388.78	844.00
388.91	825.00
389.04	868.00
389.17	970.00
389.31	883.00
389.44	894.00
389.57	941.00
389.70	918.00
389.84	859.00
389.97	854.00
390.10	846.00
390.24	900.00
390.37	860.00
390.50	853.00
390.63	936.00
390.77	876.00
390.90	870.00
391.03	870.00
391.16	822.00
391.30	860.00
391.43	862.00
391.56	853.00
391.69	838.00
391.83	922.00
391.96	881.00
392.09	874.00
392.22	961.00
392.36	906.00
392.49	833.00
392.62	875.00
392.75	902.00
392.89	931.00
393.02	841.00
393.15	863.00
393.28	825.00
393.42	985.00
393.55	831.00
393.68	845.00
393.81	833.00
393.95	858.00
394.08	866.00
394.21	850.00
394.34	917.00
394.48	912.00
394.61	919.00
394.74	895.00
394.87	925.00
395.01	922.00
395.14	907.00
395.27	870.00
395.40	969.00
395.54	984.00
395.67	887.00
395.80	856.00
395.93	918.00
396.07	881.00
396.20	857.00
396.33	815.00
396.46	864.00
396.59	884.00
396.73	879.00
396.86	869.00
396.99	955.00
397.12	910.00
397.26	910.00
397.39	881.00
397.52	1207.00
397.65	1007.00
397.79	903.00
397.92	897.00
398.05	949.00
398.18	882.00
398.32	887.00
398.45	929.00
398.58	923.00
398.71	926.00
398.84	858.00
398.98	895.00
399.11	937.00
399.24	930.00
399.37	899.00
399.51	883.00
399.64	910.00
399.77	898.00
399.90	914.00
400.03	909.00
400.17	865.00
400.30	963.00
400.43	934.00
400.56	899.00
400.70	918.00
400.83	893.00
400.96	868.00
401.09	912.00
401.23	931.00
401.36	968.00
401.49	897.00
401.62	898.00
401.75	893.00
401.89	902.00
402.02	915.00
402.15	908.00
402.28	925.00
402.41	920.00
402.55	891.00
402.68	912.00
402.81	976.00
402.94	968.00
403.08	893.00
403.21	878.00
403.34	964.00
403.47	954.00
403.60	916.00
403.74	942.00
403.87	963.00
404.00	899.00
404.13	908.00
404.26	869.00
404.40	909.00
404.53	933.00
404.66	919.00
404.79	874.00
404.93	973.00
405.06	953.00
405.19	886.00
405.32	931.00
405.45	928.00
405.59	973.00
405.72	941.00
405.85	929.00
405.98	1109.00
406.11	905.00
406.25	910.00
406.38	911.00
406.51	978.00
406.64	938.00
406.77	878.00
406.91	898.00
407.04	970.00
407.17	952.00
407.30	971.00
407.43	944.00
407.57	1021.00
407.70	1010.00
407.83	925.00
407.96	955.00
408.09	922.00
408.23	1025.00
408.36	959.00
408.49	940.00
408.62	1089.00
408.75	965.00
408.89	929.00
409.02	977.00
409.15	977.00
409.28	1050.00
409.41	990.00
409.55	939.00
409.68	1090.00
409.81	973.00
409.94	941.00
410.07	955.00
410.20	967.00
410.34	958.00
410.47	956.00
410.60	975.00
410.73	1017.00
410.86	943.00
411.00	962.00
411.13	940.00
411.26	986.00
411.39	979.00
411.52	980.00
411.66	953.00
411.79	962.00
411.92	944.00
412.05	983.00
412.18	944.00
412.31	1005.00
412.45	1020.00
412.58	1026.00
412.71	935.00
412.84	1000.00
412.97	1052.00
413.11	995.00
413.24	1006.00
413.37	1031.00
413.50	1084.00
413.63	1002.00
413.76	967.00
413.90	1019.00
414.03	984.00
414.16	979.00
414.29	1006.00
414.42	988.00
414.56	1107.00
414.69	978.00
414.82	1024.00
414.95	1016.00
415.08	1021.00
415.21	983.00
415.35	1000.00
415.48	939.00
415.61	1062.00
415.74	1057.00
415.87	969.00
416.00	1038.00
416.14	1152.00
416.27	1028.00
416.40	988.00
416.53	1016.00
416.66	1032.00
416.79	1028.00
416.93	979.00
417.06	1035.00
417.19	1006.00
417.32	998.00
417.45	1016.00
417.58	993.00
417.72	1070.00
417.85	992.00
417.98	1016.00
418.11	1076.00
418.24	1008.00
418.37	1002.00
418.51	1020.00
418.64	1027.00
418.77	1117.00
418.90	1064.00
419.03	992.00
419.16	1041.00
419.29	1096.00
419.43	1029.00
419.56	1018.00
419.69	1150.00
419.82	1083.00
419.95	1049.00
420.08	1049.00
420.22	1102.00
420.35	1169.00
420.48	1095.00
420.61	1059.00
420.74	1009.00
420.87	1077.00
421.00	1010.00
421.14	1013.00
421.27	1109.00
421.40	1143.00
421.53	1079.00
421.66	1060.00
421.79	1058.00
421.93	1064.00
422.06	1064.00
422.19	1037.00
422.32	1133.00
422.45	1131.00
422.58	1072.00
422.71	1054.00
422.85	1136.00
422.98	1117.00
423.11	1020.00
423.24	1002.00
423.37	1050.00
423.50	1034.00
423.63	1070.00
423.77	1050.00
423.90	1068.00
424.03	1101.00
424.16	1109.00
424.29	1058.00
424.42	1042.00
424.55	1037.00
424.69	1032.00
424.82	1075.00
424.95	1111.00
425.08	1065.00
425.21	1111.00
425.34	1075.00
425.47	1088.00
425.60	1113.00
425.74	1042.00
425.87	1077.00
426.00	1088.00
426.13	1116.00
426.26	1070.00
426.39	1069.00
426.52	1093.00
426.66	1169.00
426.79	1101.00
426.92	1057.00
427.05	1187.00
427.18	1174.00
427.31	1088.00
427.44	1095.00
427.57	1062.00
427.71	1120.00
427.84	1061.00
427.97	1105.00
428.10	1161.00
428.23	1131.00
428.36	1095.00
428.49	1035.00
428.62	1266.00
428.76	1236.00
428.89	1137.00
429.02	1073.00
429.15	1128.00
429.28	1212.00
429.41	1109.00
429.54	1119.00
429.67	1103.00
429.81	1158.00
429.94	1134.00
430.07	1104.00
430.20	1179.00
430.33	1217.00
430.46	1110.00
430.59	1100.00
430.72	1126.00
430.85	1077.00
430.99	1126.00
431.12	1107.00
431.25	1216.00
431.38	1227.00
431.51	1129.00
431.64	1145.00
431.77	1213.00
431.90	1222.00
432.03	1152.00
432.17	1145.00
432.30	1160.00
432.43	1171.00
432.56	1161.00
432.69	1173.00
432.82	1178.00
432.95	1220.00
433.08	1160.00
433.21	1183.00
433.35	1144.00
433.48	1153.00
433.61	1126.00
433.74	1176.00
433.87	1137.00
434.00	1200.00
434.13	1153.00
434.26	1186.00
434.39	1186.00
434.53	1231.00
434.66	1163.00
434.79	1174.00
434.92	1160.00
435.05	1259.00
435.18	1172.00
435.31	1222.00
435.44	1270.00
435.57	1224.00
435.70	1172.00
435.84	1146.00
435.97	1268.00
436.10	1312.00
436.23	1173.00
436.36	1157.00
436.49	1178.00
436.62	1221.00
436.75	1188.00
436.88	1202.00
437.01	1189.00
437.14	1185.00
437.28	1146.00
437.41	1176.00
437.54	1254.00
437.67	1229.00
437.80	1177.00
437.93	1146.00
438.06	1323.00
438.19	1271.00
438.32	1162.00
438.45	1186.00
438.58	1251.00
438.72	1286.00
438.85	1259.00
438.98	1198.00
439.11	1258.00
439.24	1292.00
439.37	1266.00
439.50	1246.00
439.63	1320.00
439.76	1215.00
439.89	1202.00
440.02	1221.00
440.15	1262.00
440.29	1317.00
440.42	1229.00
440.55	1244.00
440.68	1323.00
440.81	1354.00
440.94	1249.00
441.07	1237.00
441.20	1362.00
441.33	1280.00
441.46	1212.00
441.59	1234.00
441.72	1245.00
441.85	1253.00
441.99	1286.00
442.12	1298.00
442.25	1369.00
442.38	1259.00
442.51	1279.00
442.64	1208.00
442.77	1285.00
442.90	1245.00
443.03	1207.00
443.16	1234.00
443.29	1275.00
443.42	1337.00
443.55	1271.00
443.68	1282.00
443.82	1243.00
443.95	1271.00
444.08	1283.00
444.21	1276.00
444.34	1306.00
444.47	1269.00
444.60	1296.00
444.73	1288.00
444.86	1306.00
444.99	1373.00
445.12	1328.00
445.25	1299.00
445.38	1316.00
445.51	1352.00
445.64	1325.00
445.78	1275.00
445.91	1257.00
446.04	1428.00
446.17	1357.00
446.30	1260.00
446.43	1342.00
446.56	1333.00
446.69	1271.00
446.82	1297.00
446.95	1390.00
447.08	1374.00
447.21	1322.00
447.34	1308.00
447.47	1395.00
447.60	1369.00
447.73	1323.00
447.86	1368.00
447.99	1343.00
448.13	1357.00
448.26	1397.00
448.39	1332.00
448.52	1371.00
448.65	1377.00
448.78	1334.00
448.91	1363.00
449.04	1366.00
449.17	1362.00
449.30	1378.00
449.43	1378.00
449.56	1374.00
449.69	1438.00
449.82	1371.00
449.95	1321.00
450.08	1442.00
450.21	1401.00
450.34	1369.00
450.47	1382.00
450.60	1405.00
450.73	1398.00
450.87	1356.00
451.00	1406.00
451.13	1462.00
451.26	1573.00
451.39	1346.00
451.52	1395.00
451.65	1380.00
451.78	1342.00
451.91	1391.00
452.04	1383.00
452.17	1507.00
452.30	1498.00
452.43	1394.00
452.56	1410.00
452.69	1475.00
452.82	1413.00
452.95	1467.00
453.08	1386.00
453.21	1343.00
453.34	1457.00
453.47	1404.00
453.60	1456.00
453.73	1538.00
453.86	1490.00
453.99	1453.00
454.12	1457.00
454.25	1448.00
454.38	1457.00
454.52	1403.00
454.65	1423.00
454.78	1416.00
454.91	1419.00
455.04	1433.00
455.17	1402.00
455.30	1441.00
455.43	1548.00
455.56	1451.00
455.69	1446.00
455.82	1491.00
455.95	1494.00
456.08	1465.00
456.21	1471.00
456.34	1443.00
456.47	1451.00
456.60	1463.00
456.73	1464.00
456.86	1496.00
456.99	1521.00
457.12	1461.00
457.25	1460.00
457.38	1566.00
457.51	1530.00
457.64	1531.00
457.77	1516.00
457.90	1510.00
458.03	1532.00
458.16	1538.00
458.29	1531.00
458.42	1519.00
458.55	1478.00
458.68	1510.00
458.81	1518.00
458.94	1620.00
459.07	1643.00
459.20	1488.00
459.33	1521.00
459.46	1593.00
459.59	1668.00
459.72	1623.00
459.85	1569.00
459.98	1654.00
460.11	1636.00
460.24	1598.00
460.37	1555.00
460.50	1663.00
460.63	1625.00
460.76	1574.00
460.89	1616.00
461.02	1656.00
461.15	1643.00
461.28	1613.00
461.41	1626.00
461.54	1677.00
461.67	1607.00
461.80	1650.00
461.93	1695.00
462.06	1699.00
462.19	1700.00
462.32	1617.00
462.45	1606.00
462.58	1718.00
462.71	1627.00
462.84	1644.00
462.97	1605.00
463.10	1658.00
463.23	1675.00
463.36	1699.00
463.49	1667.00
463.62	1621.00
463.75	1695.00
463.88	1669.00
464.01	1687.00
464.14	1643.00
464.27	1782.00
464.40	1656.00
464.53	1682.00
464.66	1761.00
464.79	1749.00
464.92	1730.00
465.05	1704.00
465.18	1716.00
465.31	1749.00
465.44	1735.00
465.57	1740.00
465.70	1736.00
465.83	1866.00
465.96	1765.00
466.09	1769.00
466.22	1842.00
466.35	1813.00
466.48	1763.00
466.61	1745.00
466.74	1784.00
466.87	1822.00
467.00	1848.00
467.13	1830.00
467.26	1857.00
467.39	1778.00
467.52	1798.00
467.65	1792.00
467.78	1904.00
467.91	1819.00
468.04	1866.00
468.17	1842.00
468.30	1875.00
468.43	1856.00
468.56	1857.00
468.69	1876.00
468.82	1916.00
468.95	1838.00
469.08	1873.00
469.21	1906.00
469.34	1943.00
469.47	2011.00
469.60	1994.00
469.73	1938.00
469.86	1986.00
469.99	2009.00
470.11	1906.00
470.24	1974.00
470.37	1981.00
470.50	1981.00
470.63	1982.00
470.76	1959.00
470.89	2012.00
471.02	2108.00
471.15	1989.00
471.28	2012.00
471.41	2096.00
471.54	2042.00
471.67	2010.00
471.80	1971.00
471.93	2116.00
472.06	2073.00
472.19	2043.00
472.32	2040.00
472.45	2189.00
472.58	2157.00
472.71	2106.00
472.84	2091.00
472.97	2087.00
473.10	2069.00
473.23	2169.00
473.36	2114.00
473.49	2213.00
473.62	2210.00
473.74	2196.00
473.87	2186.00
474.00	2142.00
474.13	2190.00
474.26	2219.00
474.39	2247.00
474.52	2251.00
474.65	2207.00
474.78	2251.00
474.91	2174.00
475.04	2273.00
475.17	2407.00
475.30	2290.00
475.43	2272.00
475.56	2350.00
475.69	2300.00
475.82	2347.00
475.95	2285.00
476.08	2436.00
476.21	2335.00
476.34	2380.00
476.46	2410.00
476.59	2445.00
476.72	2383.00
476.85	2360.00
476.98	2385.00
477.11	2460.00
477.24	2468.00
477.37	2387.00
477.50	2457.00
477.63	2468.00
477.76	2444.00
477.89	2394.00
478.02	2403.00
478.15	2499.00
478.28	2486.00
478.41	2538.00
478.54	2490.00
478.66	2585.00
478.79	2519.00
478.92	2555.00
479.05	2550.00
479.18	2543.00
479.31	2590.00
479.44	2578.00
479.57	2556.00
479.70	2582.00
479.83	2657.00
479.96	2660.00
480.09	2682.00
480.22	2777.00
480.35	2790.00
480.48	2675.00
480.60	2679.00
480.73	2660.00
480.86	2749.00
480.99	2706.00
481.12	2710.00
481.25	2770.00
481.38	2835.00
481.51	2729.00
481.64	2773.00
481.77	2818.00
481.90	2774.00
482.03	2827.00
482.16	2806.00
482.29	2916.00
482.41	2809.00
482.54	2851.00
482.67	2808.00
482.80	2858.00
482.93	2926.00
483.06	2829.00
483.19	2922.00
483.32	2912.00
483.45	2890.00
483.58	2924.00
483.71	2978.00
483.84	2983.00
483.97	3006.00
484.09	2949.00
484.22	2968.00
484.35	2957.00
484.48	2923.00
484.61	2938.00
484.74	2981.00
484.87	3047.00
485.00	2991.00
485.13	3063.00
485.26	3060.00
485.39	3105.00
485.52	3066.00
485.64	3158.00
485.77	3115.00
485.90	3152.00
486.03	3084.00
486.16	3154.00
486.29	3082.00
486.42	3152.00
486.55	3194.00
486.68	3144.00
486.81	3188.00
486.94	3226.00
487.06	3190.00
487.19	3261.00
487.32	3250.00
487.45	3231.00
487.58	3202.00
487.71	3246.00
487.84	3219.00
487.97	3269.00
488.10	3308.00
488.23	3255.00
488.35	3216.00
488.48	3306.00
488.61	3297.00
488.74	3311.00
488.87	3321.00
489.00	3341.00
489.13	3450.00
489.26	3377.00
489.39	3400.00
489.52	3444.00
489.64	3436.00
489.77	3376.00
489.90	3385.00
490.03	3409.00
490.16	3418.00
490.29	3438.00
490.42	3428.00
490.55	3506.00
490.68	3417.00
490.81	3486.00
490.93	3427.00
491.06	3531.00
491.19	3545.00
491.32	3513.00
491.45	3595.00
491.58	3513.00
491.71	3557.00
491.84	3524.00
491.97	3538.00
492.09	3611.00
492.22	3587.00
492.35	3605.00
492.48	3615.00
492.61	3637.00
492.74	3619.00
492.87	3625.00
493.00	3574.00
493.12	3598.00
493.25	3646.00
493.38	3645.00
493.51	3649.00
493.64	3642.00
493.77	3674.00
493.90	3739.00
494.03	3712.00
494.16	3778.00
494.28	3794.00
494.41	3742.00
494.54	3761.00
494.67	3850.00
494.80	3797.00
494.93	3764.00
495.06	3832.00
495.19	3792.00
495.31	3778.00
495.44	3808.00
495.57	3761.00
495.70	3823.00
495.83	3808.00
495.96	3814.00
496.09	3847.00
496.22	3911.00
496.34	3941.00
496.47	3847.00
496.60	3874.00
496.73	3939.00
496.86	3969.00
496.99	3873.00
497.12	3919.00
497.24	3877.00
497.37	3966.00
497.50	3910.00
497.63	3904.00
497.76	3937.00
497.89	4035.00
498.02	3933.00
498.15	3913.00
498.27	4014.00
498.40	4056.00
498.53	4047.00
498.66	4041.00
498.79	4065.00
498.92	4012.00
499.05	4026.00
499.17	4075.00
499.30	4118.00
499.43	4123.00
499.56	4079.00
499.69	4048.00
499.82	4157.00
499.95	4110.00
500.07	4103.00
500.20	4109.00
500.33	4117.00
500.46	4261.00
500.59	4182.00
500.72	4184.00
500.85	4244.00
500.97	4259.00
501.10	4191.00
501.23	4134.00
501.36	4180.00
501.49	4239.00
501.62	4264.00
501.75	4266.00
501.87	4322.00
502.00	4218.00
502.13	4284.00
502.26	4274.00
502.39	4206.00
502.52	4238.00
502.64	4242.00
502.77	4292.00
502.90	4312.00
503.03	4335.00
503.16	4269.00
503.29	4232.00
503.42	4427.00
503.54	4307.00
503.67	4341.00
503.80	4367.00
503.93	4408.00
504.06	4337.00
504.19	4367.00
504.31	4445.00
504.44	4434.00
504.57	4417.00
504.70	4399.00
504.83	4325.00
504.96	4425.00
505.08	4448.00
505.21	4507.00
505.34	4568.00
505.47	4543.00
505.60	4532.00
505.73	4576.00
505.85	4553.00
505.98	4684.00
506.11	4487.00
506.24	4526.00
506.37	4489.00
506.50	4565.00
506.62	4557.00
506.75	4533.00
506.88	4563.00
507.01	4578.00
507.14	4513.00
507.27	4556.00
507.39	4565.00
507.52	4596.00
507.65	4590.00
507.78	4653.00
507.91	4611.00
508.04	4697.00
508.16	4721.00
508.29	4643.00
508.42	4616.00
508.55	4622.00
508.68	4680.00
508.81	4724.00
508.93	4702.00
509.06	4738.00
509.19	4747.00
509.32	4710.00
509.45	4721.00
509.57	4752.00
509.70	4713.00
509.83	4728.00
509.96	4755.00
510.09	4804.00
510.22	4777.00
510.34	4839.00
510.47	4800.00
510.60	4890.00
510.73	4847.00
510.86	4858.00
510.98	4813.00
511.11	4830.00
511.24	4903.00
511.37	4885.00
511.50	4827.00
511.63	4852.00
511.75	4857.00
511.88	4858.00
512.01	4947.00
512.14	4873.00
512.27	4917.00
512.39	4843.00
512.52	4866.00
512.65	4949.00
512.78	4909.00
512.91	4835.00
513.03	4943.00
513.16	5033.00
513.29	4982.00
513.42	5015.00
513.55	4941.00
513.67	5024.00
513.80	4986.00
513.93	4993.00
514.06	5028.00
514.19	5036.00
514.31	5028.00
514.44	5035.00
514.57	5090.00
514.70	5123.00
514.83	5128.00
514.95	5040.00
515.08	5088.00
515.21	5104.00
515.34	5082.00
515.47	5090.00
515.59	5092.00
515.72	5118.00
515.85	5145.00
515.98	5232.00
516.11	5122.00
516.23	5225.00
516.36	5227.00
516.49	5247.00
516.62	5190.00
516.75	5294.00
516.87	5327.00
517.00	5152.00
517.13	5270.00
517.26	5257.00
517.39	5266.00
517.51	5149.00
517.64	5237.00
517.77	5298.00
517.90	5213.00
518.02	5233.00
518.15	5238.00
518.28	5186.00
518.41	5303.00
518.54	5293.00
518.66	5327.00
518.79	5275.00
518.92	5274.00
519.05	5328.00
519.18	5322.00
519.30	5375.00
519.43	5294.00
519.56	5347.00
519.69	5410.00
519.81	5371.00
519.94	5446.00
520.07	5337.00
520.20	5399.00
520.33	5423.00
520.45	5447.00
520.58	5443.00
520.71	5486.00
520.84	5454.00
520.96	5461.00
521.09	5519.00
521.22	5466.00
521.35	5492.00
521.48	5522.00
521.60	5494.00
521.73	5497.00
521.86	5520.00
521.99	5623.00
522.11	5500.00
522.24	5458.00
522.37	5546.00
522.50	5566.00
522.62	5577.00
522.75	5458.00
522.88	5508.00
523.01	5530.00
523.14	5577.00
523.26	5615.00
523.39	5683.00
523.52	5617.00
523.65	5714.00
523.77	5633.00
523.90	5640.00
524.03	5584.00
524.16	5619.00
524.28	5647.00
524.41	5627.00
524.54	5640.00
524.67	5573.00
524.79	5646.00
524.92	5667.00
525.05	5755.00
525.18	5655.00
525.31	5731.00
525.43	5662.00
525.56	5782.00
525.69	5701.00
525.82	5668.00
525.94	5803.00
526.07	5752.00
526.20	5770.00
526.33	5748.00
526.45	5900.00
526.58	5855.00
526.71	5777.00
526.84	5706.00
526.96	5829.00
527.09	5792.00
527.22	5807.00
527.35	5778.00
527.47	5709.00
527.60	5902.00
527.73	5766.00
527.86	5879.00
527.98	5864.00
528.11	5869.00
528.24	5901.00
528.37	5821.00
528.49	5841.00
528.62	5900.00
528.75	5936.00
528.88	5915.00
529.00	5881.00
529.13	5992.00
529.26	5878.00
529.39	5945.00
529.51	6142.00
529.64	6005.00
529.77	5967.00
529.90	5879.00
530.02	5926.00
530.15	5880.00
530.28	5879.00
530.40	5973.00
530.53	5966.00
530.66	6004.00
530.79	6008.00
530.91	6013.00
531.04	5970.00
531.17	6021.00
531.30	6017.00
531.42	6020.00
531.55	6112.00
531.68	6155.00
531.81	6029.00
531.93	6030.00
532.06	6096.00
532.19	6054.00
532.31	6065.00
532.44	6085.00
532.57	6132.00
532.70	6085.00
532.82	6147.00
532.95	6147.00
533.08	6179.00
533.21	6204.00
533.33	6115.00
533.46	6128.00
533.59	6194.00
533.71	6325.00
533.84	6181.00
533.97	6180.00
534.10	6170.00
534.22	6157.00
534.35	6227.00
534.48	6198.00
534.61	6267.00
534.73	6185.00
534.86	6221.00
534.99	6270.00
535.11	6278.00
535.24	6248.00
535.37	6259.00
535.50	6306.00
535.62	6254.00
535.75	6354.00
535.88	6289.00
536.00	6221.00
536.13	6284.00
536.26	6349.00
536.39	6337.00
536.51	6328.00
536.64	6374.00
536.77	6268.00
536.89	6378.00
537.02	6361.00
537.15	6373.00
537.28	6357.00
537.40	6407.00
537.53	6361.00
537.66	6444.00
537.78	6376.00
537.91	6373.00
538.04	6363.00
538.17	6476.00
538.29	6478.00
538.42	6573.00
538.55	6512.00
538.67	6495.00
538.80	6404.00
538.93	6489.00
539.05	6522.00
539.18	6634.00
539.31	6585.00
539.44	6554.00
539.56	6504.00
539.69	6507.00
539.82	6545.00
539.94	6486.00
540.07	6548.00
540.20	6632.00
540.32	6518.00
540.45	6574.00
540.58	6583.00
540.71	6633.00
540.83	6497.00
540.96	6595.00
541.09	6610.00
541.21	6713.00
541.34	6704.00
541.47	6602.00
541.59	6633.00
541.72	6743.00
541.85	6739.00
541.98	6704.00
542.10	6610.00
542.23	6740.00
542.36	6768.00
542.48	6715.00
542.61	6763.00
542.74	6679.00
542.86	6668.00
542.99	6705.00
543.12	6652.00
543.24	6759.00
543.37	6684.00
543.50	6698.00
543.62	6742.00
543.75	6765.00
543.88	6843.00
544.01	6775.00
544.13	6801.00
544.26	6866.00
544.39	6742.00
544.51	6794.00
544.64	6816.00
544.77	6795.00
544.89	6764.00
545.02	6834.00
545.15	6840.00
545.27	6926.00
545.40	6912.00
545.53	6861.00
545.65	6882.00
545.78	6788.00
545.91	6887.00
546.03	6830.00
546.16	6941.00
546.29	6885.00
546.41	6893.00
546.54	6921.00
546.67	6876.00
546.79	6931.00
546.92	6998.00
547.05	6927.00
547.17	6962.00
547.30	6929.00
547.43	7031.00
547.56	6961.00
547.68	6936.00
547.81	6968.00
547.94	6977.00
548.06	6999.00
548.19	7009.00
548.32	7121.00
548.44	6999.00
548.57	7081.00
548.70	7073.00
548.82	7019.00
548.95	7027.00
549.08	7118.00
549.20	7002.00
549.33	7194.00
549.45	7097.00
549.58	7108.00
549.71	7061.00
549.83	7058.00
549.96	7019.00
550.09	7082.00
550.21	7075.00
550.34	7178.00
550.47	7112.00
550.59	7130.00
550.72	7131.00
550.85	7130.00
550.97	7225.00
551.10	7155.00
551.23	7227.00
551.35	7303.00
551.48	7222.00
551.61	7192.00
551.73	7236.00
551.86	7324.00
551.99	7338.00
552.11	7255.00
552.24	7294.00
552.37	7294.00
552.49	7324.00
552.62	7323.00
552.75	7233.00
552.87	7312.00
553.00	7323.00
553.12	7338.00
553.25	7291.00
553.38	7322.00
553.50	7435.00
553.63	7356.00
553.76	7293.00
553.88	7391.00
554.01	7292.00
554.14	7374.00
554.26	7432.00
554.39	7478.00
554.52	7377.00
554.64	7390.00
554.77	7463.00
554.89	7494.00
555.02	7500.00
555.15	7473.00
555.27	7491.00
555.40	7500.00
555.53	7578.00
555.65	7461.00
555.78	7537.00
555.91	7504.00
556.03	7591.00
556.16	7487.00
556.29	7529.00
556.41	7616.00
556.54	7609.00
556.66	7536.00
556.79	7469.00
556.92	7544.00
557.04	7631.00
557.17	7630.00
557.30	7533.00
557.42	7559.00
557.55	7606.00
557.67	7621.00
557.80	7589.00
557.93	7617.00
558.05	7686.00
558.18	7626.00
558.31	7708.00
558.43	7739.00
558.56	7694.00
558.68	7643.00
558.81	7677.00
558.94	7793.00
559.06	7831.00
559.19	7755.00
559.32	7773.00
559.44	7671.00
559.57	7702.00
559.69	7687.00
559.82	7746.00
559.95	7790.00
560.07	7767.00
560.20	7728.00
560.33	7780.00
560.45	7793.00
560.58	7815.00
560.70	7829.00
560.83	7792.00
560.96	7774.00
561.08	7863.00
561.21	7903.00
561.33	7856.00
561.46	7771.00
561.59	7896.00
561.71	7903.00
561.84	7948.00
561.97	7910.00
562.09	7992.00
562.22	7873.00
562.34	7937.00
562.47	8001.00
562.60	8021.00
562.72	7962.00
562.85	8027.00
562.97	7969.00
563.10	7951.00
563.23	7986.00
563.35	7965.00
563.48	8032.00
563.60	8067.00
563.73	8092.00
563.86	8004.00
563.98	8039.00
564.11	8111.00
564.23	8020.00
564.36	8126.00
564.49	8078.00
564.61	8146.00
564.74	8101.00
564.86	8069.00
564.99	8178.00
565.12	8226.00
565.24	8228.00
565.37	8192.00
565.49	8227.00
565.62	8291.00
565.75	8281.00
565.87	8130.00
566.00	8313.00
566.12	8227.00
566.25	8125.00
566.38	8227.00
566.50	8290.00
566.63	8180.00
566.75	8194.00
566.88	8183.00
567.01	8131.00
567.13	8271.00
567.26	8226.00
567.38	8220.00
567.51	8315.00
567.64	8259.00
567.76	8306.00
567.89	8344.00
568.01	8266.00
568.14	8317.00
568.26	8258.00
568.39	8312.00
568.52	8317.00
568.64	8434.00
568.77	8372.00
568.89	8391.00
569.02	8366.00
569.15	8299.00
569.27	8350.00
569.40	8395.00
569.52	8427.00
569.65	8349.00
569.77	8348.00
569.90	8340.00
570.03	8349.00
570.15	8424.00
570.28	8338.00
570.40	8402.00
570.53	8422.00
570.66	8494.00
570.78	8474.00
570.91	8372.00
571.03	8440.00
571.16	8461.00
571.28	8423.00
571.41	8377.00
571.54	8458.00
571.66	8440.00
571.79	8455.00
571.91	8453.00
572.04	8462.00
572.16	8497.00
572.29	8486.00
572.42	8470.00
572.54	8495.00
572.67	8474.00
572.79	8549.00
572.92	8485.00
573.04	8530.00
573.17	8559.00
573.29	8503.00
573.42	8475.00
573.55	8589.00
573.67	8607.00
573.80	8539.00
573.92	8541.00
574.05	8538.00
574.17	8634.00
574.30	8647.00
574.43	8529.00
574.55	8498.00
574.68	8606.00
574.80	8598.00
574.93	8553.00
575.05	8538.00
575.18	8552.00
575.30	8600.00
575.43	8632.00
575.56	8740.00
575.68	8645.00
575.81	8667.00
575.93	8638.00
576.06	8722.00
576.18	8718.00
576.31	8637.00
576.43	8624.00
576.56	8766.00
576.69	8642.00
576.81	8642.00
576.94	8695.00
577.06	8686.00
577.19	8792.00
577.31	8663.00
577.44	8684.00
577.56	8730.00
577.69	8655.00
577.82	8741.00
577.94	8710.00
578.07	8661.00
578.19	8775.00
578.32	8811.00
578.44	8711.00
578.57	8701.00
578.69	8728.00
578.82	8791.00
578.94	8745.00
579.07	8771.00
579.19	8798.00
579.32	8736.00
579.45	8784.00
579.57	8846.00
579.70	8822.00
579.82	8786.00
579.95	8725.00
580.07	8834.00
580.20	8767.00
580.32	8741.00
580.45	8844.00
580.57	8764.00
580.70	8807.00
580.82	8870.00
580.95	8928.00
581.08	8802.00
581.20	8944.00
581.33	8849.00
581.45	8865.00
581.58	8858.00
581.70	8930.00
581.83	8832.00
581.95	8845.00
582.08	8891.00
582.20	8906.00
582.33	8850.00
582.45	8862.00
582.58	8884.00
582.70	8872.00
582.83	8906.00
582.95	8860.00
583.08	8916.00
583.21	8939.00
583.33	9006.00
583.46	8936.00
583.58	8889.00
583.71	8930.00
583.83	8964.00
583.96	8946.00
584.08	9096.00
584.21	9056.00
584.33	9012.00
584.46	8945.00
584.58	8850.00
584.71	8997.00
584.83	9050.00
584.96	8946.00
585.08	8936.00
585.21	9075.00
585.33	9097.00
585.46	8985.00
585.58	9057.00
585.71	8996.00
585.83	9010.00
585.96	9032.00
586.08	9041.00
586.21	9071.00
586.33	9102.00
586.46	9003.00
586.59	9120.00
586.71	9065.00
586.84	9103.00
586.96	9070.00
587.09	8997.00
587.21	8983.00
587.34	9022.00
587.46	9091.00
587.59	9161.00
587.71	9124.00
587.84	9080.00
587.96	9161.00
588.09	9030.00
588.21	9124.00
588.34	9148.00
588.46	9103.00
588.59	9134.00
588.71	9174.00
588.84	9158.00
588.96	9227.00
589.09	9162.00
589.21	9165.00
589.34	9088.00
589.46	9179.00
589.59	9162.00
589.71	9222.00
589.84	9136.00
589.96	9107.00
590.09	9215.00
590.21	9238.00
590.34	9165.00
590.46	9166.00
590.59	9201.00
590.71	9180.00
590.84	9292.00
590.96	9244.00
591.09	9272.00
591.21	9249.00
591.34	9195.00
591.46	9251.00
591.59	9350.00
591.71	9267.00
591.83	9257.00
591.96	9187.00
592.08	9301.00
592.21	9341.00
592.33	9282.00
592.46	9231.00
592.58	9290.00
592.71	9379.00
592.83	9360.00
592.96	9307.00
593.08	9381.00
593.21	9322.00
593.33	9246.00
593.46	9223.00
593.58	9274.00
593.71	9369.00
593.83	9361.00
593.96	9288.00
594.08	9438.00
594.21	9396.00
594.33	9334.00
594.46	9303.00
594.58	9340.00
594.71	9316.00
594.83	9440.00
594.96	9364.00
595.08	9521.00
595.20	9393.00
595.33	9434.00
595.45	9416.00
595.58	9512.00
595.70	9442.00
595.83	9393.00
595.95	9438.00
596.08	9425.00
596.20	9424.00
596.33	9380.00
596.45	9461.00
596.58	9400.00
596.70	9385.00
596.83	9395.00
596.95	9347.00
597.08	9426.00
597.20	9402.00
597.32	9460.00
597.45	9448.00
597.57	9513.00
597.70	9482.00
597.82	9493.00
597.95	9434.00
598.07	9467.00
598.20	9546.00
598.32	9598.00
598.45	9502.00
598.57	9552.00
598.70	9610.00
598.82	9523.00
598.94	9510.00
599.07	9571.00
599.19	9582.00
599.32	9528.00
599.44	9449.00
599.57	9627.00
599.69	9558.00
599.82	9606.00
599.94	9550.00
600.07	9610.00
600.19	9593.00
600.31	9619.00
600.44	9627.00
600.56	9645.00
600.69	9591.00
600.81	9596.00
600.94	9517.00
601.06	9596.00
601.19	9593.00
601.31	9624.00
601.44	9454.00
601.56	9645.00
601.68	9646.00
601.81	9652.00
601.93	9622.00
602.06	9620.00
602.18	9622.00
602.31	9591.00
602.43	9669.00
602.56	9741.00
602.68	9680.00
602.80	9672.00
602.93	9801.00
603.05	9609.00
603.18	9700.00
603.30	9636.00
603.43	9663.00
603.55	9722.00
603.68	9790.00
603.80	9741.00
603.92	9680.00
604.05	9649.00
604.17	9716.00
604.30	9707.00
604.42	9611.00
604.55	9766.00
604.67	9689.00
604.79	9707.00
604.92	9753.00
605.04	9680.00
605.17	9670.00
605.29	9734.00
605.42	9709.00
605.54	9841.00
605.66	9690.00
605.79	9803.00
605.91	9740.00
606.04	9731.00
606.16	9732.00
606.29	9789.00
606.41	9804.00
606.53	9809.00
606.66	9792.00
606.78	9787.00
606.91	9735.00
607.03	9813.00
607.16	9849.00
607.28	9776.00
607.40	9803.00
607.53	9862.00
607.65	9731.00
607.78	9784.00
607.90	9808.00
608.03	9963.00
608.15	9864.00
608.27	9893.00
608.40	9805.00
608.52	9804.00
608.65	9882.00
608.77	9862.00
608.89	9841.00
609.02	10008.00
609.14	9933.00
609.27	9861.00
609.39	9943.00
609.52	9818.00
609.64	9826.00
609.76	9939.00
609.89	9900.00
610.01	9938.00
610.14	9945.00
610.26	9868.00
610.38	9905.00
610.51	9937.00
610.63	9960.00
610.76	9890.00
610.88	9915.00
611.01	9919.00
611.13	10067.00
611.25	9995.00
611.38	9893.00
611.50	9934.00
611.63	9901.00
611.75	9980.00
611.87	9960.00
612.00	9942.00
612.12	9977.00
612.25	9933.00
612.37	9938.00
612.49	9957.00
612.62	9969.00
612.74	10037.00
612.87	9979.00
612.99	9847.00
613.11	9929.00
613.24	9964.00
613.36	9897.00
613.49	9954.00
613.61	9996.00
613.73	10022.00
613.86	10009.00
613.98	10018.00
614.11	10055.00
614.23	10069.00
614.35	10052.00
614.48	10094.00
614.60	9953.00
614.72	9938.00
614.85	10023.00
614.97	10063.00
615.10	10049.00
615.22	9998.00
615.34	10059.00
615.47	10091.00
615.59	10029.00
615.72	9982.00
615.84	10018.00
615.96	10028.00
616.09	10210.00
616.21	10046.00
616.34	10057.00
616.46	10058.00
616.58	10057.00
616.71	10061.00
616.83	10048.00
616.95	10044.00
617.08	10063.00
617.20	10044.00
617.33	10028.00
617.45	10080.00
617.57	10104.00
617.70	10041.00
617.82	10051.00
617.95	10014.00
618.07	10046.00
618.19	10026.00
618.32	10090.00
618.44	10051.00
618.56	9986.00
618.69	10074.00
618.81	10048.00
618.94	10157.00
619.06	9977.00
619.18	10105.00
619.31	10016.00
619.43	10093.00
619.55	10165.00
619.68	10166.00
619.80	10051.00
619.92	10106.00
620.05	10173.00
620.17	10139.00
620.30	10011.00
620.42	10034.00
620.54	10210.00
620.67	10054.00
620.79	10172.00
620.91	10172.00
621.04	10170.00
621.16	10104.00
621.29	10130.00
621.41	10117.00
621.53	10101.00
621.66	10157.00
621.78	10092.00
621.90	10220.00
622.03	10201.00
622.15	10183.00
622.27	10104.00
622.40	10148.00
622.52	10087.00
622.64	10107.00
622.77	10066.00
622.89	10157.00
623.02	10180.00
623.14	10205.00
623.26	10156.00
623.39	10212.00
623.51	10298.00
623.63	10142.00
623.76	10121.00
623.88	10236.00
624.00	10224.00
624.13	10099.00
624.25	10124.00
624.37	10110.00
624.50	10167.00
624.62	10186.00
624.75	10148.00
624.87	10130.00
624.99	10169.00
625.12	10167.00
625.24	10175.00
625.36	10297.00
625.49	10155.00
625.61	10146.00
625.73	10123.00
625.86	10210.00
625.98	10222.00
626.10	10169.00
626.23	10106.00
626.35	10214.00
626.47	10145.00
626.60	10181.00
626.72	10118.00
626.84	10245.00
626.97	10241.00
627.09	10205.00
627.21	10194.00
627.34	10322.00
627.46	10251.00
627.58	10222.00
627.71	10230.00
627.83	10371.00
627.95	10146.00
628.08	10255.00
628.20	10204.00
628.32	10225.00
628.45	10201.00
628.57	10155.00
628.69	10169.00
628.82	10264.00
628.94	10282.00
629.06	10237.00
629.19	10319.00
629.31	10257.00
629.43	10176.00
629.56	10191.00
629.68	10193.00
629.80	10287.00
629.93	10160.00
630.05	10230.00
630.17	10130.00
630.30	10230.00
630.42	10184.00
630.54	10257.00
630.67	10230.00
630.79	10220.00
630.91	10336.00
631.04	10300.00
631.16	10250.00
631.28	10227.00
631.41	10216.00
631.53	10206.00
631.65	10288.00
631.78	10286.00
631.90	10296.00
632.02	10232.00
632.14	10071.00
632.27	10194.00
632.39	10210.00
632.51	10225.00
632.64	10332.00
632.76	10321.00
632.88	10302.00
633.01	10216.00
633.13	10260.00
633.25	10326.00
633.38	10366.00
633.50	10243.00
633.62	10259.00
633.75	10149.00
633.87	10182.00
633.99	10321.00
634.11	10240.00
634.24	10206.00
634.36	10330.00
634.48	10220.00
634.61	10214.00
634.73	10347.00
634.85	10188.00
634.98	10210.00
635.10	10378.00
635.22	10283.00
635.35	10438.00
635.47	10308.00
635.59	10334.00
635.71	10298.00
635.84	10308.00
635.96	10320.00
636.08	10292.00
636.21	10286.00
636.33	10320.00
636.45	10272.00
636.58	10266.00
636.70	10284.00
636.82	10339.00
636.94	10325.00
637.07	10195.00
637.19	10376.00
637.31	10397.00
637.44	10362.00
637.56	10297.00
637.68	10371.00
637.81	10344.00
637.93	10305.00
638.05	10242.00
638.17	10391.00
638.30	10389.00
638.42	10308.00
638.54	10303.00
638.67	10348.00
638.79	10355.00
638.91	10305.00
639.03	10271.00
639.16	10297.00
639.28	10277.00
639.40	10347.00
639.53	10261.00
639.65	10397.00
639.77	10279.00
639.89	10331.00
640.02	10330.00
640.14	10307.00
640.26	10230.00
640.39	10373.00
640.51	10300.00
640.63	10321.00
640.75	10369.00
640.88	10308.00
641.00	10305.00
641.12	10278.00
641.24	10355.00
641.37	10351.00
641.49	10341.00
641.61	10493.00
641.74	10325.00
641.86	10373.00
641.98	10316.00
642.10	10373.00
642.23	10337.00
642.35	10313.00
642.47	10370.00
642.60	10378.00
642.72	10440.00
642.84	10267.00
642.96	10323.00
643.09	10382.00
643.21	10388.00
643.33	10327.00
643.45	10362.00
643.58	10380.00
643.70	10384.00
643.82	10396.00
643.94	10284.00
644.07	10370.00
644.19	10424.00
644.31	10391.00
644.44	10326.00
644.56	10334.00
644.68	10355.00
644.80	10250.00
644.93	10362.00
645.05	10375.00
645.17	10443.00
645.29	10402.00
645.42	10339.00
645.54	10345.00
645.66	10460.00
645.78	10326.00
645.91	10427.00
646.03	10373.00
646.15	10478.00
646.27	10391.00
646.40	10436.00
646.52	10439.00
646.64	10455.00
646.76	10489.00
646.89	10348.00
647.01	10421.00
647.13	10445.00
647.25	10468.00
647.38	10413.00
647.50	10427.00
647.62	10484.00
647.74	10398.00
647.87	10310.00
647.99	10421.00
648.11	10437.00
648.23	10405.00
648.36	10400.00
648.48	10464.00
648.60	10401.00
648.72	10511.00
648.85	10388.00
648.97	10441.00
649.09	10448.00
649.21	10416.00
649.34	10460.00
649.46	10557.00
649.58	10563.00
649.70	10382.00
649.83	10362.00
649.95	10488.00
650.07	10508.00
650.19	10501.00
650.32	10405.00
650.44	10516.00
650.56	10428.00
650.68	10457.00
650.81	10403.00
650.93	10469.00
651.05	10461.00
651.17	10414.00
651.29	10513.00
651.42	10448.00
651.54	10468.00
651.66	10412.00
651.78	10408.00
651.91	10393.00
652.03	10554.00
652.15	10501.00
652.27	10523.00
652.40	10486.00
652.52	10413.00
652.64	10459.00
652.76	10446.00
652.88	10590.00
653.01	10447.00
653.13	10479.00
653.25	10412.00
653.37	10525.00
653.50	10568.00
653.62	10485.00
653.74	10425.00
653.86	10545.00
653.98	10583.00
654.11	10556.00
654.23	10427.00
654.35	10461.00
654.47	10609.00
654.60	10538.00
654.72	10555.00
654.84	10424.00
654.96	10554.00
655.08	10480.00
655.21	10501.00
655.33	10572.00
655.45	10607.00
655.57	10601.00
655.70	10517.00
655.82	10567.00
655.94	10568.00
656.06	10478.00
656.18	10446.00
656.31	10599.00
656.43	10500.00
656.55	10551.00
656.67	10486.00
656.79	10545.00
656.92	10621.00
657.04	10566.00
657.16	10528.00
657.28	10673.00
657.40	10513.00
657.53	10618.00
657.65	10544.00
657.77	10568.00
657.89	10605.00
658.01	10574.00
658.14	10607.00
658.26	10505.00
658.38	10535.00
658.50	10475.00
658.62	10476.00
658.75	10629.00
658.87	10502.00
658.99	10595.00
659.11	10496.00
659.23	10543.00
659.36	10676.00
659.48	10592.00
659.60	10549.00
659.72	10576.00
659.84	10524.00
659.97	10634.00
660.09	10642.00
660.21	10680.00
660.33	10649.00
660.45	10523.00
660.58	10454.00
660.70	10525.00
660.82	10562.00
660.94	10494.00
661.06	10582.00
661.19	10569.00
661.31	10662.00
661.43	10573.00
661.55	10619.00
661.67	10643.00
661.80	10680.00
661.92	10571.00
662.04	10648.00
662.16	10631.00
662.28	10618.00
662.40	10619.00
662.53	10600.00
662.65	10641.00
662.77	10604.00
662.89	10646.00
663.01	10576.00
663.14	10545.00
663.26	10628.00
663.38	10515.00
663.50	10482.00
663.62	10556.00
663.74	10544.00
663.87	10616.00
663.99	10603.00
664.11	10712.00
664.23	10744.00
664.35	10642.00
664.48	10576.00
664.60	10662.00
664.72	10530.00
664.84	10509.00
664.96	10581.00
665.08	10657.00
665.21	10589.00
665.33	10609.00
665.45	10585.00
665.57	10648.00
665.69	10555.00
665.81	10515.00
665.94	10545.00
666.06	10599.00
666.18	10634.00
666.30	10612.00
666.42	10517.00
666.54	10625.00
666.67	10606.00
666.79	10573.00
666.91	10669.00
667.03	10562.00
667.15	10573.00
667.27	10571.00
667.40	10489.00
667.52	10557.00
667.64	10597.00
667.76	10664.00
667.88	10582.00
668.00	10660.00
668.13	10629.00
668.25	10632.00
668.37	10577.00
668.49	10545.00
668.61	10695.00
668.73	10567.00
668.85	10597.00
668.98	10614.00
669.10	10616.00
669.22	10630.00
669.34	10549.00
669.46	10557.00
669.58	10574.00
669.71	10581.00
669.83	10612.00
669.95	10521.00
670.07	10539.00
670.19	10538.00
670.31	10652.00
670.43	10540.00
670.56	10681.00
670.68	10630.00
670.80	10669.00
670.92	10555.00
671.04	10625.00
671.16	10601.00
671.28	10496.00
671.41	10533.00
671.53	10673.00
671.65	10558.00
671.77	10591.00
671.89	10722.00
672.01	10737.00
672.13	10626.00
672.26	10496.00
672.38	10616.00
672.50	10485.00
672.62	10649.00
672.74	10644.00
672.86	10514.00
672.98	10590.00
673.11	10528.00
673.23	10563.00
673.35	10643.00
673.47	10573.00
673.59	10626.00
673.71	10519.00
673.83	10584.00
673.96	10707.00
674.08	10606.00
674.20	10537.00
674.32	10648.00
674.44	10637.00
674.56	10646.00
674.68	10582.00
674.80	10647.00
674.93	10587.00
675.05	10551.00
675.17	10555.00
675.29	10629.00
675.41	10629.00
675.53	10616.00
675.65	10525.00
675.77	10654.00
675.90	10643.00
676.02	10592.00
676.14	10539.00
676.26	10638.00
676.38	10688.00
676.50	10517.00
676.62	10594.00
676.74	10484.00
676.87	10467.00
676.99	10623.00
677.11	10537.00
677.23	10622.00
677.35	10518.00
677.47	10548.00
677.59	10499.00
677.71	10535.00
677.83	10616.00
677.96	10570.00
678.08	10569.00
678.20	10519.00
678.32	10471.00
678.44	10486.00
678.56	10504.00
678.68	10636.00
678.80	10506.00
678.93	10439.00
679.05	10467.00
679.17	10563.00
679.29	10507.00
679.41	10459.00
679.53	10347.00
679.65	10403.00
679.77	10524.00
679.89	10493.00
680.01	10477.00
680.14	10547.00
680.26	10352.00
680.38	10460.00
680.50	10477.00
680.62	10533.00
680.74	10512.00
680.86	10547.00
680.98	10474.00
681.10	10462.00
681.22	10568.00
681.35	10476.00
681.47	10428.00
681.59	10354.00
681.71	10561.00
681.83	10533.00
681.95	10394.00
682.07	10440.00
682.19	10393.00
682.31	10426.00
682.43	10413.00
682.56	10536.00
682.68	10351.00
682.80	10417.00
682.92	10448.00
683.04	10400.00
683.16	10394.00
683.28	10328.00
683.40	10355.00
683.52	10384.00
683.64	10397.00
683.76	10375.00
683.89	10434.00
684.01	10447.00
684.13	10491.00
684.25	10417.00
684.37	10346.00
684.49	10422.00
684.61	10402.00
684.73	10470.00
684.85	10424.00
684.97	10367.00
685.09	10473.00
685.21	10379.00
685.34	10428.00
685.46	10520.00
685.58	10433.00
685.70	10363.00
685.82	10473.00
685.94	10330.00
686.06	10273.00
686.18	10291.00
686.30	10300.00
686.42	10357.00
686.54	10368.00
686.66	10295.00
686.79	10421.00
686.91	10381.00
687.03	10448.00
687.15	10391.00
687.27	10375.00
687.39	10337.00
687.51	10361.00
687.63	10342.00
687.75	10333.00
687.87	10401.00
687.99	10430.00
688.11	10312.00
688.23	10361.00
688.35	10286.00
688.48	10233.00
688.60	10312.00
688.72	10246.00
688.84	10319.00
688.96	10329.00
689.08	10321.00
689.20	10265.00
689.32	10336.00
689.44	10265.00
689.56	10230.00
689.68	10251.00
689.80	10273.00
689.92	10226.00
690.04	10269.00
690.16	10254.00
690.28	10322.00
690.41	10288.00
690.53	10185.00
690.65	10237.00
690.77	10329.00
690.89	10317.00
691.01	10210.00
691.13	10136.00
691.25	10162.00
691.37	10188.00
691.49	10248.00
691.61	10176.00
691.73	10252.00
691.85	10193.00
691.97	10196.00
692.09	10206.00
692.21	10212.00
692.33	10264.00
692.45	10201.00
692.57	10220.00
692.70	10165.00
692.82	10182.00
692.94	10111.00
693.06	10112.00
693.18	10259.00
693.30	10182.00
693.42	10079.00
693.54	10120.00
693.66	10085.00
693.78	10222.00
693.90	10143.00
694.02	10231.00
694.14	10172.00
694.26	10196.00
694.38	10199.00
694.50	10184.00
694.62	10118.00
694.74	10151.00
694.86	10056.00
694.98	10080.00
695.10	10062.00
695.22	10119.00
695.34	10031.00
695.46	10108.00
695.58	10045.00
695.71	9997.00
695.83	10109.00
695.95	10110.00
696.07	10136.00
696.19	10028.00
696.31	10083.00
696.43	10098.00
696.55	10145.00
696.67	10069.00
696.79	10106.00
696.91	10082.00
697.03	10024.00
697.15	10219.00
697.27	10080.00
697.39	10074.00
697.51	10106.00
697.63	10035.00
697.75	10027.00
697.87	10016.00
697.99	10035.00
698.11	9956.00
698.23	9993.00
698.35	10017.00
698.47	10044.00
698.59	10011.00
698.71	10000.00
698.83	10036.00
698.95	10037.00
699.07	10093.00
699.19	9956.00
699.31	9951.00
699.43	9938.00
699.55	10014.00
699.67	9978.00
699.79	9973.00
699.91	9969.00
700.03	9977.00
700.15	10017.00
700.27	9979.00
700.39	10008.00
700.51	9860.00
700.63	9970.00
700.75	9916.00
700.87	9952.00
700.99	9881.00
701.11	9909.00
701.24	9892.00
701.36	9979.00
701.48	10022.00
701.60	9935.00
701.72	9822.00
701.84	9985.00
701.96	9929.00
702.08	9863.00
702.20	9986.00
702.32	9860.00
702.44	9915.00
702.56	9953.00
702.68	9870.00
702.80	9884.00
702.92	10038.00
703.04	9952.00
703.16	9906.00
703.28	9919.00
703.40	9816.00
703.52	9865.00
703.64	9859.00
703.76	9853.00
703.88	9750.00
704.00	9888.00
704.12	9939.00
704.24	9875.00
704.36	9825.00
704.48	9847.00
704.60	9801.00
704.72	9876.00
704.84	9774.00
704.96	9787.00
705.07	9792.00
705.19	9730.00
705.31	9757.00
705.43	9815.00
705.55	9779.00
705.67	9800.00
705.79	9787.00
705.91	9662.00
706.03	9720.00
706.15	9814.00
706.27	9773.00
706.39	9730.00
706.51	9736.00
706.63	9728.00
706.75	9713.00
706.87	9729.00
706.99	9773.00
707.11	9742.00
707.23	9729.00
707.35	9756.00
707.47	9786.00
707.59	9733.00
707.71	9802.00
707.83	9734.00
707.95	9754.00
708.07	9816.00
708.19	9843.00
708.31	9804.00
708.43	9673.00
708.55	9746.00
708.67	9837.00
708.79	9752.00
708.91	9727.00
709.03	9716.00
709.15	9754.00
709.27	9645.00
709.39	9688.00
709.51	9698.00
709.63	9662.00
709.75	9736.00
709.87	9687.00
709.99	9794.00
710.11	9693.00
710.23	9651.00
710.35	9682.00
710.47	9766.00
710.58	9706.00
710.70	9712.00
710.82	9635.00
710.94	9700.00
711.06	9656.00
711.18	9581.00
711.30	9646.00
711.42	9710.00
711.54	9644.00
711.66	9594.00
711.78	9568.00
711.90	9629.00
712.02	9642.00
712.14	9591.00
712.26	9498.00
712.38	9671.00
712.50	9658.00
712.62	9699.00
712.74	9560.00
712.86	9573.00
712.98	9604.00
713.10	9546.00
713.22	9465.00
713.34	9590.00
713.45	9581.00
713.57	9600.00
713.69	9501.00
713.81	9567.00
713.93	9540.00
714.05	9546.00
714.17	9475.00
714.29	9587.00
714.41	9605.00
714.53	9541.00
714.65	9552.00
714.77	9499.00
714.89	9456.00
715.01	9566.00
715.13	9476.00
715.25	9545.00
715.37	9528.00
715.49	9432.00
715.61	9528.00
715.72	9489.00
715.84	9514.00
715.96	9468.00
716.08	9465.00
716.20	9561.00
716.32	9536.00
716.44	9485.00
716.56	9428.00
716.68	9490.00
716.80	9484.00
716.92	9558.00
717.04	9515.00
717.16	9450.00
717.28	9372.00
717.40	9421.00
717.52	9413.00
717.63	9401.00
717.75	9407.00
717.87	9373.00
717.99	9408.00
718.11	9393.00
718.23	9417.00
718.35	9372.00
718.47	9365.00
718.59	9317.00
718.71	9327.00
718.83	9273.00
718.95	9361.00
719.07	9307.00
719.19	9358.00
719.30	9316.00
719.42	9293.00
719.54	9258.00
719.66	9305.00
719.78	9333.00
719.90	9242.00
720.02	9302.00
720.14	9248.00
720.26	9318.00
720.38	9294.00
720.50	9235.00
720.62	9231.00
720.74	9303.00
720.85	9231.00
720.97	9322.00
721.09	9372.00
721.21	9268.00
721.33	9288.00
721.45	9183.00
721.57	9240.00
721.69	9153.00
721.81	9090.00
721.93	9277.00
722.05	9242.00
722.16	9188.00
722.28	9097.00
722.40	9183.00
722.52	9223.00
722.64	9208.00
722.76	9092.00
722.88	9138.00
723.00	9192.00
723.12	9209.00
723.24	9221.00
723.36	9067.00
723.47	9239.00
723.59	9179.00
723.71	9173.00
723.83	9182.00
723.95	9104.00
724.07	9238.00
724.19	9191.00
724.31	9254.00
724.43	9086.00
724.55	9054.00
724.66	9083.00
724.78	9270.00
724.90	9074.00
725.02	9067.00
725.14	9102.00
725.26	9177.00
725.38	9030.00
725.50	9105.00
725.62	9157.00
725.74	9117.00
725.85	9056.00
725.97	9141.00
726.09	9160.00
726.21	9440.00
726.33	9109.00
726.45	9169.00
726.57	9110.00
726.69	9196.00
726.81	9068.00
726.92	9109.00
727.04	9078.00
727.16	9131.00
727.28	9099.00
727.40	9040.00
727.52	9016.00
727.64	9185.00
727.76	9174.00
727.88	9036.00
727.99	8942.00
728.11	8933.00
728.23	9072.00
728.35	9086.00
728.47	9046.00
728.59	8987.00
728.71	9013.00
728.83	8994.00
728.94	9036.00
729.06	9016.00
729.18	9044.00
729.30	9001.00
729.42	9018.00
729.54	9045.00
729.66	9130.00
729.78	9049.00
729.90	8963.00
730.01	8990.00
730.13	8916.00
730.25	8966.00
730.37	8986.00
730.49	9021.00
730.61	9012.00
730.73	8982.00
730.84	9025.00
730.96	8963.00
731.08	8999.00
731.20	8969.00
731.32	9002.00
731.44	9081.00
731.56	8933.00
731.68	8871.00
731.79	9001.00
731.91	8982.00
732.03	9009.00
732.15	9005.00
732.27	8917.00
732.39	8888.00
732.51	8943.00
732.62	8875.00
732.74	8906.00
732.86	9011.00
732.98	8937.00
733.10	8911.00
733.22	8907.00
733.34	8985.00
733.45	8852.00
733.57	8845.00
733.69	8837.00
733.81	8946.00
733.93	8883.00
734.05	8799.00
734.17	8826.00
734.28	8820.00
734.40	8865.00
734.52	8802.00
734.64	8838.00
734.76	8975.00
734.88	8880.00
735.00	8837.00
735.11	8885.00
735.23	8986.00
735.35	8818.00
735.47	8765.00
735.59	8906.00
735.71	8761.00
735.83	8774.00
735.94	8852.00
736.06	8826.00
736.18	8840.00
736.30	8894.00
736.42	8857.00
736.54	8796.00
736.65	8803.00
736.77	8915.00
736.89	8868.00
737.01	8778.00
737.13	8906.00
737.25	8699.00
737.36	8738.00
737.48	8739.00
737.60	8801.00
737.72	8789.00
737.84	8769.00
737.96	8824.00
738.08	8750.00
738.19	8822.00
738.31	8662.00
738.43	8723.00
738.55	8731.00
738.67	8713.00
738.79	8681.00
738.90	8694.00
739.02	8793.00
739.14	8657.00
739.26	8667.00
739.38	8716.00
739.50	8782.00
739.61	8707.00
739.73	8725.00
739.85	8659.00
739.97	8676.00
740.09	8717.00
740.20	8609.00
740.32	8656.00
740.44	8711.00
740.56	8653.00
740.68	8617.00
740.80	8628.00
740.91	8671.00
741.03	8691.00
741.15	8618.00
741.27	8583.00
741.39	8662.00
741.51	8653.00
741.62	8674.00
741.74	8650.00
741.86	8581.00
741.98	8518.00
742.10	8621.00
742.21	8536.00
742.33	8598.00
742.45	8601.00
742.57	8650.00
742.69	8529.00
742.80	8524.00
742.92	8523.00
743.04	8645.00
743.16	8542.00
743.28	8605.00
743.40	8531.00
743.51	8522.00
743.63	8488.00
743.75	8525.00
743.87	8577.00
743.99	8606.00
744.10	8585.00
744.22	8426.00
744.34	8513.00
744.46	8464.00
744.58	8481.00
744.69	8451.00
744.81	8455.00
744.93	8383.00
745.05	8404.00
745.17	8562.00
745.28	8519.00
745.40	8461.00
745.52	8398.00
745.64	8387.00
745.76	8493.00
745.87	8366.00
745.99	8382.00
746.11	8414.00
746.23	8372.00
746.35	8407.00
746.46	8380.00
746.58	8505.00
746.70	8373.00
746.82	8443.00
746.94	8347.00
747.05	8307.00
747.17	8292.00
747.29	8309.00
747.41	8295.00
747.53	8453.00
747.64	8304.00
747.76	8402.00
747.88	8378.00
748.00	8288.00
748.12	8385.00
748.23	8308.00
748.35	8317.00
748.47	8371.00
748.59	8386.00
748.70	8324.00
748.82	8217.00
748.94	8286.00
749.06	8240.00
749.18	8271.00
749.29	8260.00
749.41	8292.00
749.53	8230.00
749.65	8266.00
749.76	8298.00
749.88	8216.00
750.00	8225.00
750.12	8250.00
750.24	8259.00
750.35	8206.00
750.47	8099.00
750.59	8214.00
750.71	8092.00
750.82	8295.00
750.94	8203.00
751.06	8151.00
751.18	8133.00
751.30	8211.00
751.41	8222.00
751.53	8169.00
751.65	8132.00
751.77	8119.00
751.88	8234.00
752.00	8171.00
752.12	8080.00
752.24	8162.00
752.35	8122.00
752.47	8116.00
752.59	8099.00
752.71	8170.00
752.83	8112.00
752.94	8163.00
753.06	8061.00
753.18	8109.00
753.30	7969.00
753.41	7984.00
753.53	8032.00
753.65	8080.00
753.77	8057.00
753.88	8025.00
754.00	8038.00
754.12	7954.00
754.24	8082.00
754.35	7984.00
754.47	7932.00
754.59	8013.00
754.71	7960.00
754.82	8040.00
754.94	7930.00
755.06	7965.00
755.18	7928.00
755.29	7924.00
755.41	7892.00
755.53	7972.00
755.65	7867.00
755.76	7900.00
755.88	7917.00
756.00	7925.00
756.12	7831.00
756.23	7845.00
756.35	7861.00
756.47	7859.00
756.59	7840.00
756.70	7810.00
756.82	7830.00
756.94	7834.00
757.06	7880.00
757.17	7802.00
757.29	7822.00
757.41	7805.00
757.53	7796.00
757.64	7760.00
757.76	7776.00
757.88	7829.00
758.00	7780.00
758.11	7724.00
758.23	7719.00
758.35	7786.00
758.47	7722.00
758.58	7819.00
758.70	7690.00
758.82	7706.00
758.94	7668.00
759.05	7747.00
759.17	7629.00
759.29	7657.00
759.40	7696.00
759.52	7594.00
759.64	7632.00
759.76	7617.00
759.87	7678.00
759.99	7638.00
760.11	7655.00
760.23	7651.00
760.34	7604.00
760.46	7574.00
760.58	7603.00
760.70	7605.00
760.81	7662.00
760.93	7598.00
761.05	7609.00
761.16	7602.00
761.28	7526.00
761.40	7555.00
761.52	7531.00
761.63	7602.00
761.75	7535.00
761.87	7519.00
761.98	7507.00
762.10	7487.00
762.22	7464.00
762.34	7518.00
762.45	7530.00
762.57	7544.00
762.69	7643.00
762.81	7464.00
762.92	7497.00
763.04	7378.00
763.16	7461.00
763.27	7472.00
763.39	7421.00
763.51	7393.00
763.63	7460.00
763.74	7428.00
763.86	7337.00
763.98	7393.00
764.09	7322.00
764.21	7435.00
764.33	7347.00
764.44	7396.00
764.56	7323.00
764.68	7353.00
764.80	7383.00
764.91	7293.00
765.03	7456.00
765.15	7315.00
765.26	7382.00
765.38	7190.00
765.50	7286.00
765.62	7290.00
765.73	7258.00
765.85	7293.00
765.97	7209.00
766.08	7252.00
766.20	7251.00
766.32	7292.00
766.43	7250.00
766.55	7277.00
766.67	7252.00
766.79	7206.00
766.90	7188.00
767.02	7120.00
767.14	7145.00
767.25	7110.00
767.37	7295.00
767.49	7205.00
767.60	7197.00
767.72	7229.00
767.84	7157.00
767.95	7098.00
768.07	7141.00
768.19	7206.00
768.31	7161.00
768.42	7123.00
768.54	7126.00
768.66	7101.00
768.77	7064.00
768.89	7091.00
769.01	7049.00
769.12	7098.00
769.24	7151.00
769.36	7019.00
769.47	6983.00
769.59	6966.00
769.71	7053.00
769.82	6973.00
769.94	6995.00
770.06	6912.00
770.17	7049.00
770.29	6999.00
770.41	6968.00
770.53	7021.00
770.64	6913.00
770.76	6933.00
770.88	6958.00
770.99	6997.00
771.11	6877.00
771.23	7004.00
771.34	6929.00
771.46	6990.00
771.58	6941.00
771.69	6886.00
771.81	6894.00
771.93	6913.00
772.04	6855.00
772.16	6938.00
772.28	6889.00
772.39	6826.00
772.51	6782.00
772.63	6823.00
772.74	6836.00
772.86	6813.00
772.98	6920.00
773.09	6823.00
773.21	6807.00
773.33	6747.00
773.44	6791.00
773.56	6781.00
773.68	6787.00
773.79	6728.00
773.91	6730.00
774.03	6741.00
774.14	6689.00
774.26	6726.00
774.38	6678.00
774.49	6624.00
774.61	6684.00
774.73	6661.00
774.84	6630.00
774.96	6586.00
775.08	6665.00
775.19	6617.00
775.31	6715.00
775.43	6642.00
775.54	6636.00
775.66	6516.00
775.77	6659.00
775.89	6523.00
776.01	6585.00
776.12	6691.00
776.24	6579.00
776.36	6475.00
776.47	6533.00
776.59	6553.00
776.71	6634.00
776.82	6466.00
776.94	6525.00
777.06	6515.00
777.17	6581.00
777.29	6466.00
777.41	6433.00
777.52	6504.00
777.64	6420.00
777.75	6501.00
777.87	6389.00
777.99	6404.00
778.10	6473.00
778.22	6422.00
778.34	6444.00
778.45	6427.00
778.57	6406.00
778.69	6436.00
778.80	6357.00
778.92	6469.00
779.04	6435.00
779.15	6440.00
779.27	6379.00
779.38	6378.00
779.50	6337.00
779.62	6254.00
779.73	6322.00
779.85	6276.00
779.97	6389.00
780.08	6297.00
780.20	6294.00
780.31	6329.00
780.43	6256.00
780.55	6230.00
780.66	6198.00
780.78	6275.00
780.90	6316.00
781.01	6218.00
781.13	6192.00
781.25	6191.00
781.36	6249.00
781.48	6182.00
781.59	6140.00
781.71	6164.00
781.83	6185.00
781.94	6214.00
782.06	6123.00
782.18	6232.00
782.29	6111.00
782.41	6102.00
782.52	6213.00
782.64	6208.00
782.76	6117.00
782.87	6105.00
782.99	6094.00
783.10	6200.00
783.22	6237.00
783.34	6086.00
783.45	6077.00
783.57	6081.00
783.69	6037.00
783.80	6043.00
783.92	6071.00
784.03	6018.00
784.15	5998.00
784.27	6017.00
784.38	5969.00
784.50	5940.00
784.61	6066.00
784.73	5965.00
784.85	5982.00
784.96	5900.00
785.08	6042.00
785.19	5958.00
785.31	5963.00
785.43	5915.00
785.54	5899.00
785.66	5916.00
785.77	5941.00
785.89	5923.00
786.01	5863.00
786.12	5922.00
786.24	5902.00
786.35	5924.00
786.47	5815.00
786.59	5806.00
786.70	5805.00
786.82	5834.00
786.93	5824.00
787.05	5858.00
787.17	5824.00
787.28	5744.00
787.40	5796.00
787.51	5820.00
787.63	5854.00
787.75	5756.00
787.86	5784.00
787.98	5756.00
788.09	5766.00
788.21	5799.00
788.33	5744.00
788.44	5752.00
788.56	5716.00
788.67	5752.00
788.79	5722.00
788.91	5749.00
789.02	5755.00
789.14	5719.00
789.25	5763.00
789.37	5724.00
789.48	5698.00
789.60	5663.00
789.72	5633.00
789.83	5662.00
789.95	5666.00
790.06	5565.00
790.18	5601.00
790.30	5643.00
790.41	5614.00
790.53	5605.00
790.64	5605.00
790.76	5493.00
790.87	5605.00
790.99	5633.00
791.11	5562.00
791.22	5554.00
791.34	5518.00
791.45	5614.00
791.57	5580.00
791.68	5478.00
791.80	5474.00
791.92	5535.00
792.03	5475.00
792.15	5463.00
792.26	5517.00
792.38	5481.00
792.49	5491.00
792.61	5447.00
792.73	5487.00
792.84	5519.00
792.96	5577.00
793.07	5483.00
793.19	6239.00
793.30	5544.00
793.42	5444.00
793.54	5346.00
793.65	5380.00
793.77	5559.00
793.88	5404.00
794.00	5317.00
794.11	5314.00
794.23	5274.00
794.34	5351.00
794.46	5292.00
794.58	5315.00
794.69	5437.00
794.81	5384.00
794.92	5212.00
795.04	5260.00
795.15	5365.00
795.27	5333.00
795.39	5337.00
795.50	5238.00
795.62	5233.00
795.73	5254.00
795.85	5265.00
795.96	5300.00
796.08	5353.00
796.19	5245.00
796.31	5185.00
796.42	5152.00
796.54	5207.00
796.66	5225.00
796.77	5156.00
796.89	5164.00
797.00	5248.00
797.12	5121.00
797.23	5223.00
797.35	5168.00
797.46	5162.00
797.58	5206.00
797.69	5177.00
797.81	5123.00
797.93	5125.00
798.04	5102.00
798.16	5122.00
798.27	5155.00
798.39	5085.00
798.50	5079.00
798.62	5066.00
798.73	5044.00
798.85	5178.00
798.96	5128.00
799.08	5070.00
799.19	5113.00
799.31	5042.00
799.43	5050.00
799.54	5034.00
799.66	4993.00
799.77	5046.00
799.89	4975.00
800.00	4907.00
800.12	4954.00
800.23	5040.00
800.35	5105.00
800.46	4905.00
800.58	4849.00
800.69	4920.00
800.81	4909.00
800.92	4907.00
801.04	4950.00
801.16	4902.00
801.27	4896.00
801.39	4826.00
801.50	4898.00
801.62	4857.00
801.73	4959.00
801.85	4933.00
801.96	4826.00
802.08	4945.00
802.19	4971.00
802.31	4840.00
802.42	4891.00
802.54	4889.00
802.65	4892.00
802.77	4816.00
802.88	4864.00
803.00	4788.00
803.11	4929.00
803.23	4810.00
803.34	4820.00
803.46	4806.00
803.57	4779.00
803.69	4812.00
803.80	4768.00
803.92	4822.00
804.03	4728.00
804.15	4777.00
804.26	4804.00
804.38	4757.00
804.50	4708.00
804.61	4762.00
804.73	4701.00
804.84	4760.00
804.96	4623.00
805.07	4660.00
805.19	4649.00
805.30	4732.00
805.42	4690.00
805.53	4620.00
805.65	4590.00
805.76	4552.00
805.88	4537.00
805.99	4532.00
806.11	4542.00
806.22	4502.00
806.34	4462.00
806.45	4461.00
806.57	4480.00
806.68	4525.00
806.80	4346.00
806.91	4366.00
807.03	4362.00
807.14	4354.00
807.26	4290.00
807.37	4270.00
807.49	4361.00
807.60	4282.00
807.72	4362.00
807.83	4354.00
807.95	4273.00
808.06	4226.00
808.17	4228.00
808.29	4253.00
808.40	4165.00
808.52	4154.00
808.63	4103.00
808.75	4072.00
808.86	4000.00
808.98	4050.00
809.09	3990.00
809.21	4024.00
809.32	3990.00
809.44	4006.00
809.55	3914.00
809.67	3952.00
809.78	3900.00
809.90	3981.00
810.01	3953.00
810.13	3796.00
810.24	3809.00
810.36	3763.00
810.47	3767.00
810.59	3755.00
810.70	3749.00
810.82	3748.00
810.93	3616.00
811.05	3635.00
811.16	3581.00
811.27	3619.00
811.39	3574.00
811.50	3570.00
811.62	3477.00
811.73	3425.00
811.85	3486.00
811.96	3480.00
812.08	3440.00
812.19	3379.00
812.31	3401.00
812.42	3379.00
812.54	3306.00
812.65	3377.00
812.77	3381.00
812.88	3392.00
813.00	3308.00
813.11	3214.00
813.22	3170.00
813.34	3146.00
813.45	3205.00
813.57	3209.00
813.68	3248.00
813.80	3088.00
813.91	3097.00
814.03	3069.00
814.14	3112.00
814.26	2978.00
814.37	2989.00
814.49	2942.00
814.60	2926.00
814.71	2909.00
814.83	2917.00
814.94	2868.00
815.06	2833.00
815.17	2845.00
815.29	2827.00
815.40	2746.00
815.52	2881.00
815.63	2761.00
815.75	2714.00
815.86	2732.00
815.97	2637.00
816.09	2661.00
816.20	2707.00
816.32	2654.00
816.43	2569.00
816.55	2622.00
816.66	2561.00
816.78	2664.00
816.89	2562.00
817.00	2557.00
817.12	2515.00
817.23	2469.00
817.35	2528.00
817.46	2431.00
817.58	2386.00
817.69	2481.00
817.81	2409.00
817.92	2403.00
818.03	2334.00
818.15	2355.00
818.26	2280.00
818.38	2245.00
818.49	2241.00
818.61	2288.00
818.72	2175.00
818.83	3042.00
818.95	2278.00
819.06	2141.00
819.18	2127.00
819.29	2175.00
819.41	2105.00
819.52	2105.00
819.64	2072.00
819.75	2013.00
819.86	1987.00
819.98	1973.00
820.09	2002.00
820.21	1984.00
820.32	1920.00
820.44	1970.00
820.55	1980.00
820.66	1850.00
820.78	1878.00
820.89	1849.00
821.01	1825.00
821.12	1844.00
821.23	1827.00
821.35	1762.00
821.46	1818.00
821.58	1749.00
821.69	1723.00
821.81	1701.00
821.92	1801.00
822.03	1668.00
822.15	1693.00
822.26	1628.00
822.38	1603.00
822.49	1643.00
822.61	1601.00
822.72	1600.00
822.83	1597.00
822.95	1569.00
823.06	1536.00
823.18	1572.00
823.29	1577.00
823.40	1500.00
823.52	1474.00
823.63	1412.00
823.75	1543.00
823.86	1423.00
823.97	1354.00
824.09	1432.00
824.20	1331.00
824.32	1383.00
824.43	1335.00
824.55	1394.00
824.66	1418.00
824.77	1321.00
824.89	1315.00
825.00	1357.00
825.12	1267.00
825.23	1289.00
825.34	1200.00
825.46	1192.00
825.57	1249.00
825.69	1187.00
825.80	1140.00
825.91	1129.00
826.03	1098.00
826.14	1156.00
826.26	1089.00
826.37	1085.00
826.48	1059.00
826.60	1084.00
826.71	1036.00
826.83	1069.00
826.94	1055.00
827.05	1072.00
827.17	1077.00
827.28	1009.00
827.39	1008.00
827.51	957.00
827.62	978.00
827.74	956.00
827.85	953.00
827.96	931.00
828.08	929.00
828.19	1030.00
828.31	933.00
828.42	867.00
828.53	929.00
828.65	984.00
828.76	953.00
828.87	917.00
828.99	846.00
