Wavelength (nm)	Intensity
377.35	801.14
377.48	599.14
377.62	621.00
377.75	613.14
377.88	810.14
378.02	796.71
378.15	806.43
378.28	774.71
378.41	836.71
378.55	815.71
378.68	804.00
378.81	780.29
378.95	805.86
379.08	786.71
379.21	762.29
379.35	824.43
379.48	822.00
379.61	877.29
379.74	804.57
379.88	785.00
380.01	856.14
380.14	907.14
380.28	844.43
380.41	774.86
380.54	815.29
380.68	824.57
380.81	743.86
380.94	833.71
381.07	864.43
381.21	874.71
381.34	801.57
381.47	743.71
381.61	930.29
381.74	804.14
381.87	765.14
382.00	819.86
382.14	889.29
382.27	830.57
382.40	772.14
382.54	866.14
382.67	857.86
382.80	773.43
382.93	777.00
383.07	801.43
383.20	800.86
383.33	831.57
383.47	789.86
383.60	764.00
383.73	944.43
383.86	830.29
384.00	792.00
384.13	796.14
384.26	830.86
384.40	854.00
384.53	810.00
384.66	841.71
384.79	814.86
384.93	793.43
385.06	793.71
385.19	820.71
385.33	918.43
385.46	831.71
385.59	786.86
385.72	832.43
385.86	769.86
385.99	792.86
386.12	794.86
386.25	776.14
386.39	839.57
386.52	862.71
386.65	807.86
386.79	800.00
386.92	791.14
387.05	885.29
387.18	765.43
387.32	771.86
387.45	834.86
387.58	813.43
387.71	794.14
387.85	782.00
387.98	813.43
388.11	832.43
388.25	817.86
388.38	812.86
388.51	846.29
388.64	843.71
388.78	790.00
388.91	767.14
389.04	802.57
389.17	908.00
389.31	818.57
389.44	832.00
389.57	870.57
389.70	833.71
389.84	791.43
389.97	786.29
390.10	788.86
390.24	828.43
390.37	799.00
390.50	789.43
390.63	872.57
390.77	811.29
390.90	812.71
391.03	808.43
391.16	759.71
391.30	790.29
391.43	791.29
391.56	790.71
391.69	777.29
391.83	849.71
391.96	809.43
392.09	795.71
392.22	890.71
392.36	823.14
392.49	776.86
392.62	796.43
392.75	833.71
392.89	860.86
393.02	769.29
393.15	771.86
393.28	765.86
393.42	883.71
393.55	762.14
393.68	787.00
393.81	742.57
393.95	791.14
394.08	784.43
394.21	785.86
394.34	836.71
394.48	826.29
394.61	838.86
394.74	818.43
394.87	847.43
395.01	825.43
395.14	831.29
395.27	781.14
395.40	895.00
395.54	893.86
395.67	805.14
395.80	796.43
395.93	835.00
396.07	781.43
396.20	781.00
396.33	738.29
396.46	788.29
396.59	800.86
396.73	800.29
396.86	773.86
396.99	853.00
397.12	817.29
397.26	811.57
397.39	802.00
397.52	1082.86
397.65	901.57
397.79	803.86
397.92	792.43
398.05	851.86
398.18	788.86
398.32	793.86
398.45	825.57
398.58	825.14
398.71	828.43
398.84	766.29
398.98	799.14
399.11	829.29
399.24	830.43
399.37	789.57
399.51	777.57
399.64	798.00
399.77	807.43
399.90	807.14
400.03	807.86
400.17	765.71
400.30	866.29
400.43	835.00
400.56	808.29
400.70	808.14
400.83	782.71
400.96	778.14
401.09	814.71
401.23	814.43
401.36	867.14
401.49	791.71
401.62	810.29
401.75	795.71
401.89	777.00
402.02	791.57
402.15	807.86
402.28	822.43
402.41	818.00
402.55	783.71
402.68	802.29
402.81	877.57
402.94	842.71
403.08	787.57
403.21	766.43
403.34	841.71
403.47	840.14
403.60	795.57
403.74	824.29
403.87	838.57
404.00	776.29
404.13	783.00
404.26	756.71
404.40	768.14
404.53	812.43
404.66	798.86
404.79	771.71
404.93	836.71
405.06	789.86
405.19	749.00
405.32	813.57
405.45	825.29
405.59	841.00
405.72	809.43
405.85	773.86
405.98	963.43
406.11	775.71
406.25	776.43
406.38	796.71
406.51	830.00
406.64	804.86
406.77	767.86
406.91	758.14
407.04	821.00
407.17	790.14
407.30	821.86
407.43	802.57
407.57	876.71
407.70	856.57
407.83	772.14
407.96	806.14
408.09	770.29
408.23	888.14
408.36	801.43
408.49	797.00
408.62	919.86
408.75	812.43
408.89	774.57
409.02	819.86
409.15	807.86
409.28	880.57
409.41	832.00
409.55	792.71
409.68	913.29
409.81	820.29
409.94	778.86
410.07	811.14
410.20	806.00
410.34	797.71
410.47	802.71
410.60	817.00
410.73	834.00
410.86	777.43
411.00	806.71
411.13	779.29
411.26	810.43
411.39	805.57
411.52	822.57
411.66	795.43
411.79	785.43
411.92	777.71
412.05	801.29
412.18	792.86
412.31	821.43
412.45	836.86
412.58	838.00
412.71	765.71
412.84	819.29
412.97	884.14
413.11	813.57
413.24	812.43
413.37	847.71
413.50	905.29
413.63	823.57
413.76	791.71
413.90	834.86
414.03	788.57
414.16	791.86
414.29	828.29
414.42	808.29
414.56	909.00
414.69	791.00
414.82	800.14
414.95	804.57
415.08	830.00
415.21	803.86
415.35	825.14
415.48	734.14
415.61	848.71
415.74	853.29
415.87	765.00
416.00	819.29
416.14	919.86
416.27	815.71
416.40	779.00
416.53	800.14
416.66	832.14
416.79	813.86
416.93	775.71
417.06	855.71
417.19	816.29
417.32	803.29
417.45	793.00
417.58	762.71
417.72	852.57
417.85	790.00
417.98	799.71
418.11	847.29
418.24	785.57
418.37	792.71
418.51	809.57
418.64	813.29
418.77	883.00
418.90	822.29
419.03	767.43
419.16	818.29
419.29	847.57
419.43	787.86
419.56	775.43
419.69	907.43
419.82	854.00
419.95	801.57
420.08	846.14
420.22	875.86
420.35	932.00
420.48	844.14
420.61	801.29
420.74	750.14
420.87	837.86
421.00	770.71
421.14	793.57
421.27	835.86
421.40	877.43
421.53	830.29
421.66	806.00
421.79	797.14
421.93	800.57
422.06	802.00
422.19	785.43
422.32	845.29
422.45	852.43
422.58	816.43
422.71	794.71
422.85	847.86
422.98	846.43
423.11	761.43
423.24	758.00
423.37	769.86
423.50	777.14
423.63	802.14
423.77	785.86
423.90	780.43
424.03	829.86
424.16	829.86
424.29	802.43
424.42	755.86
424.55	772.71
424.69	775.00
424.82	809.14
424.95	821.29
425.08	781.71
425.21	827.00
425.34	787.86
425.47	801.14
425.60	817.43
425.74	760.43
425.87	789.71
426.00	796.71
426.13	808.71
426.26	774.00
426.39	776.14
426.52	792.00
426.66	865.43
426.79	831.14
426.92	781.00
427.05	894.57
427.18	875.57
427.31	799.57
427.44	801.14
427.57	776.00
427.71	802.86
427.84	771.43
427.97	801.86
428.10	857.29
428.23	814.14
428.36	785.14
428.49	718.00
428.62	928.71
428.76	902.14
428.89	817.14
429.02	755.57
429.15	799.86
429.28	894.29
429.41	785.86
429.54	801.71
429.67	786.00
429.81	838.14
429.94	804.57
430.07	781.43
430.20	847.86
430.33	866.29
430.46	768.71
430.59	775.43
430.72	801.71
430.85	753.86
430.99	798.43
431.12	769.86
431.25	855.86
431.38	876.00
431.51	807.14
431.64	807.86
431.77	882.29
431.90	875.00
432.03	804.57
432.17	771.00
432.30	811.71
432.43	822.43
432.56	804.14
432.69	828.86
432.82	814.71
432.95	863.29
433.08	806.57
433.21	803.86
433.35	792.14
433.48	804.57
433.61	773.43
433.74	799.71
433.87	777.14
434.00	836.14
434.13	777.86
434.26	828.29
434.39	819.14
434.53	832.57
434.66	801.86
434.79	798.00
434.92	799.14
435.05	865.86
435.18	781.57
435.31	824.57
435.44	865.29
435.57	815.57
435.70	792.14
435.84	778.86
435.97	875.14
436.10	904.71
436.23	788.29
436.36	773.14
436.49	784.86
436.62	825.57
436.75	799.71
436.88	828.71
437.01	787.43
437.14	766.71
437.28	752.29
437.41	784.86
437.54	860.57
437.67	837.86
437.80	781.14
437.93	758.29
438.06	916.00
438.19	847.71
438.32	769.57
438.45	776.14
438.58	826.14
438.72	877.43
438.85	837.14
438.98	803.29
439.11	824.57
439.24	875.14
439.37	863.14
439.50	837.43
439.63	856.29
439.76	786.86
439.89	781.57
440.02	785.57
440.15	827.43
440.29	868.71
440.42	811.43
440.55	796.71
440.68	876.57
440.81	926.57
440.94	813.57
441.07	804.29
441.20	901.29
441.33	827.86
441.46	795.43
441.59	784.57
441.72	803.57
441.85	817.00
441.99	844.14
442.12	845.71
442.25	895.00
442.38	831.00
442.51	827.57
442.64	765.14
442.77	811.43
442.90	794.86
443.03	764.43
443.16	788.29
443.29	814.00
443.42	875.43
443.55	788.86
443.68	807.57
443.82	765.43
443.95	789.14
444.08	789.71
444.21	805.29
444.34	780.86
444.47	806.00
444.60	800.86
444.73	822.14
444.86	807.57
444.99	867.00
445.12	825.00
445.25	813.14
445.38	812.00
445.51	851.14
445.64	810.43
445.78	786.43
445.91	753.86
446.04	913.14
446.17	852.71
446.30	755.14
446.43	830.14
446.56	814.43
446.69	779.86
446.82	789.00
446.95	846.29
447.08	869.43
447.21	816.29
447.34	796.29
447.47	851.43
447.60	840.71
447.73	814.14
447.86	840.71
447.99	808.71
448.13	819.57
448.26	836.43
448.39	804.86
448.52	838.71
448.65	845.00
448.78	803.00
448.91	799.00
449.04	837.14
449.17	790.86
449.30	831.86
449.43	816.00
449.56	800.29
449.69	862.71
449.82	806.00
449.95	763.43
450.08	860.71
450.21	836.00
450.34	810.71
450.47	795.29
450.60	839.43
450.73	812.86
450.87	794.14
451.00	822.43
451.13	840.43
451.26	949.57
451.39	787.43
451.52	820.29
451.65	801.29
451.78	797.14
451.91	785.14
452.04	780.14
452.17	895.86
452.30	880.14
452.43	788.71
452.56	787.43
452.69	853.86
452.82	773.57
452.95	841.29
453.08	772.14
453.21	736.43
453.34	844.71
453.47	783.86
453.60	849.43
453.73	904.14
453.86	841.71
453.99	831.00
454.12	825.00
454.25	801.14
454.38	824.57
454.52	769.57
454.65	794.43
454.78	783.71
454.91	755.57
455.04	783.71
455.17	770.57
455.30	782.71
455.43	863.86
455.56	792.57
455.69	765.43
455.82	828.86
455.95	812.43
456.08	767.00
456.21	766.71
456.34	748.71
456.47	742.00
456.60	790.29
456.73	776.71
456.86	794.14
456.99	832.43
457.12	779.71
457.25	790.43
457.38	865.29
457.51	837.71
457.64	817.14
457.77	790.43
457.90	799.00
458.03	789.29
458.16	796.00
458.29	794.14
458.42	797.14
458.55	749.43
458.68	769.86
458.81	792.14
458.94	865.71
459.07	906.14
459.20	763.00
459.33	776.57
459.46	868.71
459.59	900.86
459.72	862.29
459.85	797.00
459.98	872.14
460.11	846.00
460.24	807.57
460.37	766.86
460.50	847.86
460.63	807.00
460.76	796.14
460.89	810.71
461.02	835.00
461.15	835.43
461.28	797.00
461.41	792.71
461.54	881.43
461.67	767.71
461.80	811.86
461.93	853.71
462.06	831.14
462.19	857.71
462.32	792.14
462.45	779.71
462.58	834.43
462.71	791.57
462.84	803.00
462.97	753.71
463.10	796.71
463.23	806.57
463.36	836.86
463.49	812.43
463.62	754.43
463.75	829.00
463.88	795.43
464.01	809.86
464.14	771.00
464.27	895.57
464.40	796.14
464.53	798.29
464.66	830.14
464.79	829.57
464.92	814.00
465.05	771.29
465.18	801.29
465.31	803.57
465.44	803.14
465.57	784.00
465.70	791.71
465.83	918.00
465.96	811.71
466.09	783.29
466.22	842.14
466.35	829.43
466.48	784.43
466.61	786.00
466.74	795.86
466.87	844.57
467.00	834.00
467.13	831.29
467.26	838.86
467.39	758.71
467.52	764.86
467.65	791.43
467.78	866.00
467.91	809.57
468.04	810.57
468.17	780.57
468.30	791.14
468.43	762.14
468.56	771.00
468.69	829.71
468.82	836.57
468.95	773.00
469.08	791.00
469.21	804.86
469.34	840.29
469.47	902.14
469.60	873.43
469.73	810.43
469.86	826.29
469.99	843.71
470.11	778.43
470.24	794.29
470.37	842.71
470.50	809.00
470.63	784.43
470.76	800.86
470.89	845.57
471.02	916.57
471.15	794.00
471.28	801.71
471.41	894.86
471.54	828.29
471.67	800.00
471.80	737.86
471.93	851.43
472.06	819.86
472.19	793.71
472.32	772.29
472.45	908.57
472.58	853.29
472.71	814.71
472.84	788.43
472.97	780.71
473.10	765.57
473.23	843.71
473.36	752.86
473.49	855.57
473.62	850.14
473.74	828.71
473.87	841.71
474.00	778.86
474.13	780.29
474.26	817.29
474.39	837.71
474.52	799.71
474.65	792.71
474.78	804.86
474.91	762.29
475.04	829.14
475.17	914.29
475.30	830.14
475.43	826.14
475.56	860.57
475.69	803.57
475.82	827.00
475.95	781.71
476.08	874.29
476.21	812.57
476.34	845.00
476.46	838.00
476.59	872.86
476.72	793.71
476.85	790.57
476.98	769.43
477.11	856.29
477.24	809.14
477.37	745.71
477.50	790.00
477.63	814.14
477.76	777.71
477.89	747.57
478.02	766.71
478.15	803.86
478.28	791.71
478.41	826.14
478.54	785.86
478.66	839.57
478.79	799.14
478.92	792.71
479.05	797.71
479.18	813.43
479.31	785.29
479.44	784.14
479.57	776.14
479.70	794.00
479.83	813.29
479.96	789.71
480.09	828.00
480.22	940.43
480.35	918.29
480.48	849.29
480.60	815.57
480.73	785.71
480.86	821.00
480.99	794.29
481.12	796.43
481.25	801.14
481.38	863.86
481.51	798.86
481.64	804.29
481.77	828.86
481.90	795.86
482.03	795.86
482.16	788.71
482.29	863.86
482.41	811.29
482.54	833.43
482.67	779.71
482.80	803.00
482.93	854.71
483.06	774.43
483.19	855.43
483.32	830.00
483.45	816.86
483.58	818.86
483.71	839.14
483.84	848.86
483.97	829.43
484.09	804.71
484.22	789.43
484.35	774.43
484.48	757.57
484.61	783.14
484.74	795.71
484.87	812.71
485.00	767.57
485.13	824.43
485.26	765.14
485.39	829.86
485.52	794.86
485.64	864.57
485.77	833.29
485.90	868.29
486.03	773.29
486.16	816.29
486.29	779.29
486.42	801.71
486.55	818.43
486.68	797.86
486.81	830.43
486.94	815.43
487.06	791.14
487.19	835.43
487.32	827.86
487.45	814.14
487.58	787.86
487.71	805.57
487.84	767.43
487.97	836.86
488.10	852.57
488.23	787.86
488.35	757.00
488.48	796.57
488.61	764.29
488.74	788.43
488.87	789.00
489.00	816.86
489.13	894.43
489.26	837.29
489.39	836.00
489.52	844.57
489.64	834.71
489.77	819.43
489.90	803.43
490.03	802.14
490.16	789.29
490.29	783.57
490.42	787.57
490.55	817.00
490.68	773.14
490.81	790.14
490.93	746.57
491.06	862.43
491.19	826.14
491.32	815.43
491.45	836.57
491.58	761.57
491.71	799.29
491.84	791.14
491.97	784.43
492.09	861.57
492.22	826.86
492.35	813.43
492.48	845.71
492.61	827.43
492.74	806.71
492.87	814.86
493.00	805.57
493.12	777.57
493.25	810.71
493.38	802.29
493.51	775.71
493.64	766.00
493.77	804.14
493.90	830.14
494.03	831.43
494.16	862.43
494.28	874.29
494.41	800.29
494.54	806.00
494.67	915.86
494.80	875.29
494.93	799.00
495.06	825.57
495.19	833.00
495.31	809.57
495.44	793.00
495.57	780.86
495.70	828.14
495.83	804.14
495.96	772.29
496.09	812.71
496.22	871.00
496.34	899.29
496.47	804.71
496.60	835.14
496.73	863.14
496.86	852.29
496.99	778.86
497.12	807.71
497.24	750.57
497.37	810.71
497.50	796.57
497.63	779.29
497.76	806.14
497.89	870.43
498.02	841.14
498.15	731.57
498.27	808.00
498.40	857.29
498.53	875.14
498.66	833.57
498.79	848.71
498.92	773.29
499.05	828.00
499.17	811.29
499.30	846.71
499.43	890.00
499.56	826.43
499.69	759.14
499.82	824.00
499.95	793.71
500.07	785.14
500.20	816.29
500.33	850.43
500.46	940.43
500.59	817.86
500.72	822.43
500.85	868.00
500.97	856.43
501.10	853.43
501.23	781.14
501.36	815.00
501.49	878.00
501.62	831.71
501.75	818.43
501.87	858.29
502.00	763.86
502.13	821.14
502.26	824.43
502.39	788.71
502.52	798.43
502.64	754.43
502.77	784.29
502.90	838.57
503.03	804.00
503.16	787.86
503.29	785.57
503.42	856.14
503.54	811.57
503.67	817.14
503.80	808.14
503.93	855.00
504.06	779.71
504.19	807.00
504.31	863.14
504.44	820.86
504.57	827.14
504.70	827.00
504.83	769.00
504.96	831.14
505.08	806.43
505.21	820.86
505.34	908.00
505.47	864.71
505.60	839.00
505.73	862.29
505.85	852.57
505.98	939.43
506.11	808.86
506.24	781.00
506.37	777.86
506.50	817.29
506.62	853.00
506.75	795.29
506.88	779.29
507.01	824.86
507.14	762.00
507.27	795.43
507.39	776.29
507.52	782.57
507.65	787.43
507.78	831.43
507.91	782.29
508.04	869.57
508.16	867.57
508.29	829.00
508.42	800.29
508.55	772.57
508.68	791.29
508.81	859.29
508.93	796.00
509.06	797.14
509.19	839.14
509.32	834.71
509.45	826.00
509.57	835.14
509.70	779.14
509.83	811.29
509.96	778.29
510.09	811.29
510.22	804.00
510.34	815.86
510.47	805.14
510.60	912.29
510.73	829.57
510.86	835.14
510.98	801.43
511.11	790.71
511.24	859.43
511.37	842.57
511.50	809.29
511.63	820.86
511.75	820.14
511.88	819.71
512.01	830.57
512.14	814.57
512.27	821.86
512.39	813.00
512.52	801.86
512.65	821.00
512.78	785.43
512.91	809.71
513.03	819.00
513.16	851.00
513.29	817.00
513.42	791.57
513.55	778.86
513.67	827.57
513.80	759.57
513.93	787.57
514.06	789.71
514.19	830.57
514.31	821.00
514.44	845.00
514.57	800.43
514.70	815.71
514.83	856.71
514.95	787.00
515.08	823.29
515.21	834.71
515.34	816.00
515.47	812.71
515.59	776.86
515.72	825.29
515.85	831.57
515.98	866.71
516.11	820.86
516.23	846.43
516.36	874.43
516.49	832.00
516.62	820.71
516.75	873.57
516.87	872.29
517.00	791.71
517.13	838.71
517.26	863.00
517.39	831.57
517.51	758.86
517.64	810.29
517.77	875.00
517.90	777.71
518.02	806.29
518.15	772.14
518.28	738.29
518.41	807.43
518.54	811.71
518.66	819.57
518.79	777.71
518.92	797.57
519.05	780.29
519.18	802.14
519.30	831.57
519.43	772.00
519.56	786.43
519.69	792.86
519.81	849.71
519.94	795.71
520.07	746.14
520.20	788.29
520.33	819.43
520.45	866.57
520.58	824.00
520.71	825.57
520.84	853.43
520.96	826.86
521.09	803.14
521.22	793.14
521.35	844.86
521.48	844.57
521.60	794.00
521.73	816.14
521.86	869.00
521.99	892.14
522.11	830.14
522.24	804.14
522.37	836.29
522.50	827.57
522.62	860.57
522.75	759.57
522.88	814.86
523.01	789.43
523.14	833.29
523.26	832.29
523.39	886.86
523.52	791.86
523.65	888.29
523.77	851.14
523.90	816.71
524.03	802.86
524.16	801.14
524.28	795.71
524.41	803.00
524.54	803.00
524.67	768.71
524.79	794.29
524.92	834.00
525.05	880.86
525.18	775.43
525.31	849.43
525.43	781.14
525.56	916.43
525.69	799.57
525.82	752.14
525.94	850.43
526.07	851.29
526.20	836.86
526.33	853.71
526.45	927.86
526.58	899.00
526.71	828.14
526.84	809.57
526.96	814.71
527.09	792.86
527.22	799.86
527.35	794.71
527.47	766.00
527.60	880.43
527.73	777.57
527.86	849.29
527.98	827.71
528.11	839.00
528.24	780.14
528.37	801.86
528.49	769.43
528.62	809.00
528.75	844.57
528.88	790.00
529.00	839.14
529.13	852.14
529.26	821.14
529.39	844.71
529.51	934.29
529.64	907.43
529.77	788.00
529.90	798.71
530.02	802.00
530.15	784.00
530.28	746.00
530.40	789.00
530.53	812.43
530.66	836.14
530.79	794.71
530.91	803.14
531.04	790.86
531.17	805.86
531.30	806.57
531.42	810.86
531.55	813.14
531.68	866.43
531.81	790.86
531.93	803.86
532.06	820.43
532.19	774.57
532.31	804.71
532.44	798.14
532.57	837.43
532.70	788.86
532.82	822.43
532.95	839.43
533.08	874.71
533.21	830.86
533.33	783.14
533.46	793.14
533.59	803.29
533.71	913.86
533.84	823.43
533.97	795.86
534.10	785.00
534.22	779.86
534.35	809.71
534.48	817.14
534.61	842.14
534.73	746.86
534.86	777.71
534.99	829.29
535.11	860.57
535.24	827.14
535.37	785.71
535.50	769.43
535.62	779.71
535.75	870.57
535.88	819.71
536.00	791.43
536.13	787.57
536.26	795.71
536.39	785.00
536.51	764.57
536.64	827.00
536.77	808.57
536.89	806.71
537.02	810.14
537.15	828.86
537.28	809.86
537.40	824.43
537.53	786.57
537.66	856.71
537.78	819.14
537.91	779.57
538.04	788.29
538.17	844.43
538.29	831.14
538.42	883.00
538.55	865.71
538.67	840.86
538.80	787.29
538.93	824.29
539.05	813.57
539.18	864.86
539.31	841.29
539.44	818.86
539.56	741.43
539.69	802.14
539.82	792.86
539.94	777.86
540.07	780.86
540.20	873.14
540.32	787.71
540.45	797.71
540.58	789.57
540.71	852.57
540.83	759.86
540.96	789.71
541.09	796.57
541.21	879.00
541.34	865.57
541.47	781.43
541.59	808.14
541.72	883.43
541.85	949.86
541.98	863.86
542.10	807.00
542.23	820.71
542.36	919.14
542.48	824.14
542.61	804.29
542.74	781.00
542.86	797.00
542.99	808.29
543.12	785.43
543.24	812.43
543.37	754.29
543.50	798.00
543.62	788.00
543.75	804.14
543.88	794.71
544.01	817.43
544.13	839.00
544.26	839.86
544.39	787.00
544.51	783.71
544.64	773.86
544.77	836.43
544.89	790.00
545.02	818.14
545.15	789.57
545.27	891.71
545.40	868.29
545.53	835.43
545.65	831.14
545.78	741.43
545.91	770.29
546.03	793.29
546.16	802.86
546.29	792.86
546.41	772.71
546.54	793.57
546.67	775.71
546.79	839.00
546.92	872.71
547.05	761.00
547.17	804.86
547.30	781.71
547.43	831.71
547.56	768.86
547.68	811.00
547.81	768.29
547.94	827.71
548.06	794.57
548.19	772.14
548.32	853.00
548.44	808.43
548.57	826.00
548.70	844.29
548.82	849.14
548.95	834.00
549.08	801.86
549.20	801.86
549.33	885.57
549.45	808.14
549.58	789.00
549.71	763.00
549.83	841.00
549.96	762.29
550.09	808.43
550.21	793.43
550.34	821.71
550.47	793.29
550.59	800.57
550.72	731.71
550.85	804.00
550.97	862.14
551.10	785.86
551.23	793.43
551.35	865.71
551.48	821.86
551.61	799.57
551.73	791.71
551.86	870.86
551.99	866.57
552.11	798.57
552.24	839.86
552.37	813.00
552.49	776.71
552.62	785.57
552.75	828.86
552.87	786.57
553.00	788.57
553.12	815.57
553.25	792.57
553.38	825.29
553.50	858.29
553.63	799.71
553.76	754.00
553.88	800.14
554.01	797.86
554.14	796.86
554.26	838.14
554.39	875.14
554.52	805.86
554.64	810.14
554.77	787.43
554.89	831.43
555.02	853.43
555.15	818.00
555.27	816.14
555.40	809.14
555.53	862.29
555.65	802.71
555.78	773.29
555.91	837.43
556.03	876.71
556.16	778.71
556.29	805.14
556.41	863.29
556.54	860.57
556.66	809.00
556.79	789.86
556.92	813.14
557.04	818.57
557.17	787.29
557.30	792.43
557.42	789.43
557.55	800.57
557.67	820.71
557.80	803.14
557.93	798.43
558.05	805.43
558.18	779.14
558.31	811.57
558.43	847.86
558.56	827.57
558.68	804.00
558.81	778.71
558.94	798.00
559.06	913.00
559.19	792.86
559.32	791.00
559.44	768.29
559.57	813.71
559.69	773.43
559.82	777.57
559.95	786.71
560.07	782.86
560.20	731.43
560.33	799.43
560.45	811.86
560.58	749.57
560.70	802.71
560.83	772.00
560.96	785.43
561.08	792.71
561.21	819.00
561.33	767.57
561.46	755.29
561.59	842.57
561.71	783.71
561.84	818.43
561.97	770.57
562.09	837.86
562.22	784.00
562.34	772.14
562.47	832.00
562.60	811.00
562.72	794.29
562.85	803.57
562.97	790.57
563.10	796.14
563.23	773.86
563.35	775.14
563.48	810.71
563.60	792.00
563.73	828.14
563.86	752.43
563.98	775.14
564.11	794.86
564.23	793.29
564.36	856.57
564.49	794.00
564.61	852.71
564.74	802.86
564.86	779.86
564.99	844.14
565.12	831.29
565.24	849.71
565.37	839.29
565.49	839.57
565.62	864.86
565.75	838.29
565.87	772.71
566.00	935.86
566.12	861.86
566.25	813.29
566.38	834.00
566.50	811.71
566.63	840.29
566.75	792.14
566.88	778.43
567.01	764.57
567.13	788.43
567.26	802.00
567.38	775.86
567.51	842.43
567.64	780.86
567.76	819.57
567.89	816.14
568.01	777.29
568.14	760.57
568.26	802.14
568.39	802.00
568.52	789.14
568.64	830.86
568.77	789.43
568.89	782.57
569.02	782.57
569.15	797.29
569.27	789.43
569.40	817.86
569.52	828.29
569.65	777.43
569.77	796.29
569.90	757.00
570.03	751.57
570.15	862.00
570.28	800.71
570.40	796.57
570.53	788.57
570.66	855.71
570.78	837.14
570.91	808.86
571.03	761.86
571.16	804.29
571.28	765.00
571.41	741.71
571.54	743.71
571.66	749.14
571.79	778.43
571.91	771.29
572.04	752.43
572.16	801.43
572.29	824.29
572.42	771.14
572.54	806.43
572.67	772.29
572.79	823.14
572.92	790.29
573.04	820.00
573.17	841.86
573.29	803.86
573.42	783.57
573.55	835.29
573.67	818.00
573.80	797.57
573.92	768.57
574.05	803.14
574.17	845.86
574.30	799.14
574.43	789.57
574.55	776.14
574.68	798.29
574.80	779.71
574.93	789.43
575.05	766.57
575.18	783.43
575.30	785.43
575.43	828.14
575.56	845.71
575.68	820.14
575.81	781.71
575.93	771.14
576.06	814.86
576.18	828.14
576.31	791.43
576.43	785.86
576.56	897.14
576.69	846.14
576.81	813.29
576.94	784.43
577.06	798.71
577.19	832.71
577.31	804.14
577.44	816.86
577.56	845.29
577.69	807.86
577.82	820.57
577.94	778.43
578.07	750.00
578.19	817.29
578.32	827.71
578.44	780.00
578.57	791.00
578.69	844.86
578.82	809.57
578.94	834.57
579.07	842.57
579.19	834.00
579.32	814.86
579.45	812.86
579.57	793.86
579.70	763.43
579.82	812.43
579.95	786.71
580.07	861.86
580.20	788.14
580.32	805.71
580.45	834.00
580.57	834.43
580.70	831.43
580.82	829.57
580.95	829.00
581.08	763.43
581.20	840.71
581.33	790.00
581.45	819.29
581.58	807.57
581.70	818.71
581.83	725.00
581.95	811.14
582.08	831.14
582.20	784.00
582.33	806.29
582.45	776.14
582.58	787.00
582.70	812.43
582.83	780.29
582.95	798.71
583.08	843.00
583.21	847.14
583.33	815.86
583.46	779.29
583.58	761.29
583.71	826.00
583.83	816.29
583.96	818.29
584.08	829.71
584.21	827.00
584.33	819.71
584.46	795.57
584.58	758.29
584.71	832.14
584.83	828.29
584.96	805.29
585.08	782.86
585.21	898.29
585.33	870.57
585.46	832.14
585.58	837.86
585.71	783.14
585.83	812.43
585.96	845.29
586.08	817.57
586.21	822.14
586.33	839.14
586.46	761.57
586.59	828.57
586.71	775.00
586.84	825.57
586.96	810.43
587.09	748.86
587.21	783.86
587.34	840.14
587.46	794.14
587.59	759.43
587.71	788.57
587.84	782.00
587.96	749.86
588.09	759.71
588.21	815.14
588.34	788.57
588.46	815.14
588.59	784.00
588.71	818.57
588.84	818.00
588.96	803.57
589.09	891.14
589.21	804.71
589.34	784.43
589.46	802.14
589.59	808.00
589.71	852.29
589.84	758.43
589.96	778.29
590.09	789.14
590.21	829.43
590.34	814.86
590.46	811.71
590.59	777.86
590.71	787.86
590.84	834.43
590.96	776.29
591.09	820.29
591.21	808.43
591.34	782.86
591.46	788.57
591.59	852.71
591.71	830.00
591.83	798.57
591.96	753.43
592.08	787.57
592.21	827.29
592.33	806.43
592.46	793.43
592.58	812.86
592.71	836.57
592.83	883.29
592.96	840.71
593.08	850.00
593.21	768.14
593.33	759.14
593.46	792.43
593.58	793.71
593.71	842.00
593.83	847.00
593.96	777.43
594.08	907.71
594.21	794.57
594.33	791.29
594.46	774.71
594.58	763.86
594.71	732.29
594.83	807.86
594.96	801.86
595.08	952.43
595.20	835.14
595.33	815.71
595.45	772.71
595.58	885.86
595.70	820.00
595.83	796.29
595.95	806.86
596.08	813.71
596.20	765.29
596.33	760.29
596.45	795.86
596.58	765.57
596.70	755.86
596.83	791.14
596.95	783.29
597.08	810.71
597.20	767.86
597.32	779.43
597.45	809.57
597.57	791.29
597.70	836.43
597.82	790.86
597.95	800.71
598.07	800.43
598.20	807.43
598.32	801.00
598.45	793.86
598.57	841.43
598.70	862.00
598.82	792.43
598.94	792.14
599.07	839.71
599.19	797.57
599.32	782.00
599.44	719.71
599.57	835.00
599.69	812.14
599.82	790.00
599.94	761.71
600.07	844.43
600.19	821.57
600.31	774.86
600.44	834.14
600.56	905.29
600.69	885.86
600.81	785.71
600.94	788.57
601.06	803.71
601.19	828.00
601.31	843.86
601.44	762.57
601.56	857.86
601.68	835.14
601.81	822.86
601.93	808.71
602.06	830.29
602.18	765.57
602.31	797.00
602.43	860.71
602.56	834.29
602.68	800.86
602.80	803.86
602.93	810.86
603.05	785.86
603.18	810.57
603.30	764.71
603.43	768.14
603.55	796.71
603.68	816.43
603.80	817.00
603.92	809.14
604.05	784.14
604.17	787.14
604.30	765.29
604.42	789.57
604.55	790.71
604.67	827.14
604.79	786.43
604.92	791.29
605.04	784.86
605.17	783.71
605.29	790.57
605.42	782.86
605.54	864.57
605.66	810.57
605.79	819.00
605.91	793.14
606.04	800.71
606.16	785.86
606.29	818.57
606.41	773.29
606.53	796.00
606.66	756.43
606.78	790.86
606.91	785.43
607.03	784.71
607.16	781.14
607.28	764.43
607.40	808.86
607.53	822.57
607.65	767.71
607.78	767.29
607.90	802.57
608.03	903.29
608.15	815.00
608.27	818.00
608.40	755.14
608.52	811.57
608.65	795.71
608.77	834.43
608.89	805.29
609.02	871.00
609.14	875.00
609.27	819.86
609.39	842.43
609.52	782.29
609.64	731.29
609.76	777.00
609.89	792.86
610.01	850.86
610.14	824.14
610.26	798.43
610.38	771.57
610.51	830.86
610.63	785.57
610.76	768.29
610.88	823.29
611.01	852.29
611.13	897.29
611.25	835.00
611.38	772.57
611.50	798.57
611.63	823.86
611.75	811.00
611.87	818.14
612.00	786.86
612.12	843.29
612.25	784.14
612.37	769.00
612.49	858.00
612.62	835.00
612.74	865.86
612.87	806.00
612.99	806.43
613.11	754.43
613.24	790.86
613.36	787.43
613.49	809.14
613.61	809.00
613.73	793.43
613.86	832.57
613.98	769.86
614.11	830.86
614.23	834.00
614.35	853.14
614.48	838.71
614.60	812.14
614.72	794.00
614.85	817.43
614.97	811.00
615.10	810.86
615.22	795.29
615.34	806.00
615.47	853.43
615.59	775.14
615.72	803.14
615.84	810.43
615.96	780.14
616.09	882.71
616.21	799.14
616.34	786.57
616.46	793.29
616.58	823.29
616.71	826.14
616.83	842.57
616.95	837.43
617.08	827.14
617.20	800.14
617.33	765.86
617.45	794.43
617.57	821.14
617.70	812.29
617.82	780.57
617.95	808.00
618.07	872.71
618.19	825.43
618.32	810.00
618.44	777.14
618.56	761.00
618.69	741.43
618.81	755.86
618.94	832.71
619.06	799.00
619.18	796.00
619.31	764.00
619.43	770.00
619.55	816.00
619.68	820.00
619.80	755.00
619.92	814.86
620.05	924.00
620.17	856.71
620.30	801.86
620.42	813.14
620.54	843.14
620.67	782.00
620.79	809.00
620.91	818.71
621.04	860.14
621.16	791.00
621.29	776.71
621.41	745.86
621.53	786.29
621.66	792.14
621.78	786.43
621.90	835.43
622.03	895.43
622.15	808.57
622.27	798.57
622.40	812.86
622.52	780.14
622.64	783.14
622.77	764.14
622.89	819.14
623.02	840.14
623.14	816.00
623.26	826.43
623.39	822.71
623.51	849.71
623.63	789.14
623.76	771.00
623.88	856.86
624.00	810.00
624.13	773.86
624.25	770.43
624.37	757.43
624.50	835.14
624.62	820.29
624.75	766.86
624.87	772.71
624.99	816.29
625.12	783.00
625.24	797.29
625.36	877.71
625.49	825.86
625.61	816.00
625.73	811.00
625.86	845.00
625.98	807.14
626.10	777.57
626.23	763.00
626.35	811.14
626.47	787.43
626.60	764.86
626.72	780.86
626.84	776.43
626.97	816.00
627.09	793.00
627.21	798.00
627.34	900.57
627.46	890.71
627.58	806.43
627.71	813.29
627.83	828.71
627.95	766.57
628.08	801.71
628.20	837.71
628.32	750.00
628.45	728.86
628.57	739.86
628.69	772.86
628.82	822.29
628.94	851.00
629.06	795.14
629.19	783.86
629.31	830.57
629.43	766.00
629.56	813.43
629.68	799.00
629.80	846.57
629.93	763.86
630.05	776.29
630.17	768.00
630.30	788.86
630.42	771.86
630.54	821.71
630.67	803.57
630.79	773.43
630.91	905.57
631.04	821.00
631.16	809.43
631.28	808.00
631.41	771.00
631.53	761.00
631.65	807.43
631.78	817.86
631.90	802.14
632.02	802.86
632.14	726.29
632.27	858.14
632.39	804.43
632.51	780.43
632.64	837.43
632.76	802.57
632.88	780.14
633.01	810.00
633.13	790.57
633.25	802.43
633.38	898.14
633.50	749.43
633.62	744.43
633.75	747.29
633.87	726.14
633.99	809.71
634.11	748.71
634.24	777.14
634.36	781.57
634.48	787.43
634.61	788.86
634.73	821.71
634.85	777.86
634.98	771.29
635.10	784.57
635.22	795.29
635.35	903.14
635.47	812.14
635.59	793.29
635.71	817.71
635.84	841.86
635.96	783.14
636.08	830.71
636.21	774.71
636.33	808.29
636.45	796.43
636.58	774.14
636.70	738.71
636.82	820.86
636.94	775.86
637.07	741.86
637.19	826.86
637.31	820.14
637.44	820.29
637.56	749.29
637.68	811.57
637.81	807.86
637.93	806.57
638.05	764.43
638.17	842.71
638.30	904.71
638.42	795.43
638.54	770.00
638.67	792.00
638.79	796.00
638.91	767.86
639.03	790.43
639.16	782.29
639.28	799.71
639.40	799.86
639.53	777.57
639.65	821.29
639.77	789.00
639.89	796.57
640.02	791.57
640.14	807.86
640.26	759.00
640.39	815.14
640.51	770.71
640.63	813.14
640.75	836.00
640.88	790.14
641.00	773.71
641.12	768.71
641.24	869.57
641.37	792.71
641.49	762.57
641.61	896.57
641.74	767.86
641.86	812.43
641.98	757.43
642.10	804.86
642.23	818.00
642.35	782.57
642.47	805.57
642.60	796.14
642.72	823.71
642.84	735.57
642.96	759.71
643.09	750.14
643.21	751.29
643.33	760.29
643.45	762.57
643.58	838.14
643.70	862.86
643.82	783.14
643.94	782.43
644.07	799.57
644.19	809.14
644.31	805.29
644.44	798.71
644.56	779.29
644.68	757.29
644.80	761.43
644.93	757.00
645.05	759.29
645.17	801.71
645.29	805.29
645.42	810.86
645.54	793.57
645.66	818.71
645.78	793.00
645.91	765.57
646.03	810.57
646.15	865.29
646.27	771.71
646.40	801.00
646.52	824.14
646.64	834.71
646.76	786.43
646.89	738.43
647.01	828.57
647.13	810.86
647.25	826.14
647.38	779.43
647.50	769.00
647.62	830.71
647.74	750.00
647.87	759.00
647.99	804.71
648.11	817.71
648.23	788.71
648.36	735.71
648.48	850.86
648.60	794.29
648.72	770.86
648.85	762.57
648.97	834.86
649.09	809.43
649.21	779.71
649.34	804.43
649.46	815.43
649.58	801.29
649.70	818.29
649.83	774.57
649.95	840.14
650.07	830.71
650.19	830.14
650.32	802.86
650.44	840.29
650.56	815.14
650.68	780.71
650.81	786.29
650.93	774.14
651.05	850.00
651.17	769.86
651.29	816.14
651.42	784.86
651.54	810.86
651.66	763.57
651.78	763.57
651.91	814.57
652.03	899.29
652.15	815.57
652.27	767.43
652.40	802.29
652.52	784.29
652.64	800.57
652.76	774.57
652.88	884.00
653.01	799.14
653.13	758.57
653.25	729.71
653.37	818.29
653.50	831.86
653.62	815.43
653.74	744.86
653.86	825.57
653.98	821.71
654.11	761.29
654.23	788.43
654.35	777.43
654.47	902.71
654.60	776.86
654.72	780.57
654.84	758.29
654.96	828.43
655.08	776.71
655.21	811.43
655.33	787.57
655.45	838.43
655.57	803.43
655.70	798.43
655.82	837.00
655.94	863.86
656.06	824.29
656.18	759.29
656.31	850.71
656.43	819.86
656.55	769.29
656.67	783.00
656.79	791.86
656.92	844.14
657.04	809.14
657.16	778.00
657.28	904.00
657.40	813.29
657.53	831.43
657.65	787.43
657.77	846.43
657.89	840.86
658.01	781.71
658.14	759.86
658.26	823.86
658.38	784.29
658.50	759.71
658.62	759.86
658.75	912.57
658.87	833.86
658.99	821.29
659.11	765.43
659.23	837.86
659.36	891.86
659.48	832.00
659.60	812.43
659.72	804.86
659.84	797.86
659.97	823.71
660.09	831.29
660.21	907.86
660.33	845.86
660.45	744.14
660.58	723.86
660.70	773.00
660.82	782.57
660.94	752.57
661.06	789.29
661.19	853.71
661.31	828.29
661.43	799.43
661.55	791.71
661.67	826.00
661.80	864.14
661.92	798.00
662.04	803.86
662.16	800.43
662.28	850.71
662.40	797.86
662.53	798.43
662.65	816.43
662.77	771.57
662.89	812.29
663.01	772.14
663.14	796.14
663.26	815.57
663.38	796.86
663.50	763.57
663.62	775.43
663.74	791.71
663.87	774.29
663.99	802.43
664.11	815.71
664.23	907.29
664.35	794.71
664.48	774.86
664.60	783.29
664.72	785.43
664.84	750.00
664.96	782.00
665.08	836.00
665.21	806.14
665.33	825.86
665.45	743.71
665.57	789.43
665.69	869.43
665.81	795.86
665.94	754.86
666.06	766.00
666.18	819.14
666.30	780.29
666.42	769.86
666.54	808.29
666.67	820.29
666.79	768.00
666.91	829.57
667.03	787.00
667.15	747.43
667.27	782.71
667.40	759.86
667.52	782.43
667.64	831.29
667.76	775.43
667.88	760.71
668.00	830.29
668.13	834.71
668.25	767.57
668.37	762.57
668.49	777.57
668.61	832.43
668.73	791.57
668.85	800.14
668.98	812.86
669.10	805.14
669.22	781.71
669.34	798.86
669.46	835.00
669.58	780.14
669.71	798.86
669.83	799.71
669.95	786.00
670.07	804.00
670.19	780.29
670.31	793.29
670.43	788.14
670.56	817.29
670.68	841.71
670.80	816.43
670.92	802.14
671.04	845.00
671.16	784.86
671.28	777.14
671.41	781.71
671.53	827.00
671.65	788.00
671.77	788.71
671.89	931.00
672.01	887.00
672.13	832.00
672.26	765.86
672.38	798.71
672.50	765.29
672.62	792.29
672.74	810.00
672.86	788.71
672.98	798.57
673.11	799.43
673.23	802.29
673.35	849.57
673.47	789.71
673.59	794.86
673.71	754.86
673.83	824.00
673.96	917.14
674.08	797.71
674.20	749.57
674.32	784.43
674.44	790.71
674.56	819.86
674.68	809.00
674.80	828.43
674.93	796.71
675.05	781.71
675.17	796.71
675.29	828.43
675.41	834.86
675.53	791.71
675.65	787.14
675.77	792.00
675.90	843.29
676.02	772.43
676.14	754.57
676.26	855.00
676.38	897.00
676.50	811.29
676.62	828.43
676.74	768.57
676.87	784.29
676.99	809.29
677.11	832.71
677.23	810.29
677.35	827.57
677.47	750.29
677.59	772.71
677.71	817.00
677.83	819.86
677.96	809.00
678.08	800.57
678.20	796.86
678.32	769.14
678.44	785.86
678.56	790.14
678.68	926.43
678.80	843.71
678.93	794.71
679.05	810.00
679.17	800.71
679.29	843.29
679.41	794.71
679.53	768.29
679.65	771.43
679.77	804.43
679.89	793.57
680.01	829.43
680.14	822.71
680.26	742.43
680.38	790.43
680.50	826.29
680.62	875.29
680.74	821.14
680.86	785.00
680.98	810.00
681.10	815.71
681.22	905.57
681.35	784.29
681.47	785.57
681.59	767.86
681.71	870.14
681.83	795.57
681.95	771.57
682.07	847.71
682.19	820.57
682.31	783.00
682.43	762.86
682.56	826.00
682.68	759.86
682.80	762.00
682.92	822.14
683.04	809.29
683.16	786.86
683.28	763.43
683.40	825.29
683.52	794.29
683.64	815.86
683.76	771.86
683.89	781.86
684.01	795.86
684.13	853.86
684.25	800.86
684.37	805.43
684.49	843.29
684.61	792.29
684.73	803.14
684.85	791.71
684.97	766.86
685.09	857.57
685.21	770.86
685.34	797.71
685.46	919.71
685.58	822.14
685.70	813.43
685.82	843.86
685.94	777.00
686.06	770.29
686.18	762.43
686.30	788.29
686.42	758.43
686.54	818.29
686.66	762.29
686.79	871.00
686.91	813.86
687.03	904.71
687.15	827.29
687.27	798.43
687.39	788.14
687.51	864.14
687.63	815.57
687.75	851.14
687.87	824.71
687.99	863.14
688.11	771.14
688.23	819.86
688.35	849.29
688.48	827.43
688.60	766.29
688.72	785.86
688.84	813.29
688.96	831.29
689.08	796.29
689.20	793.14
689.32	908.86
689.44	815.00
689.56	756.57
689.68	771.43
689.80	783.00
689.92	775.29
690.04	779.29
690.16	831.71
690.28	814.00
690.41	813.14
690.53	778.00
690.65	830.71
690.77	855.29
690.89	846.43
691.01	802.14
691.13	778.57
691.25	762.71
691.37	790.29
691.49	748.43
691.61	748.71
691.73	874.71
691.85	797.86
691.97	784.43
692.09	765.71
692.21	848.57
692.33	868.43
692.45	814.14
692.57	783.86
692.70	807.00
692.82	825.14
692.94	741.57
693.06	774.71
693.18	806.86
693.30	788.14
693.42	778.71
693.54	818.57
693.66	818.71
693.78	817.29
693.90	779.43
694.02	803.71
694.14	815.71
694.26	787.57
694.38	811.00
694.50	815.71
694.62	818.43
694.74	760.29
694.86	757.00
694.98	799.71
695.10	818.43
695.22	847.43
695.34	782.71
695.46	780.43
695.58	786.71
695.71	807.29
695.83	768.29
695.95	783.43
696.07	861.43
696.19	772.43
696.31	778.14
696.43	762.43
696.55	868.71
696.67	813.71
696.79	783.86
696.91	798.43
697.03	777.71
697.15	870.00
697.27	805.71
697.39	775.29
697.51	833.86
697.63	771.29
697.75	777.57
697.87	807.14
697.99	749.29
698.11	730.86
698.23	754.43
698.35	777.71
698.47	779.71
698.59	811.71
698.71	784.14
698.83	841.14
698.95	770.86
699.07	808.29
699.19	776.43
699.31	793.71
699.43	767.57
699.55	817.14
699.67	788.86
699.79	783.29
699.91	772.14
700.03	800.57
700.15	805.71
700.27	761.71
700.39	789.43
700.51	759.14
700.63	793.00
700.75	786.57
700.87	811.86
700.99	780.14
701.11	813.00
701.24	794.71
701.36	833.86
701.48	835.14
701.60	814.43
701.72	764.86
701.84	861.14
701.96	811.43
702.08	796.86
702.20	868.14
702.32	831.57
702.44	828.14
702.56	782.00
702.68	787.86
702.80	809.00
702.92	880.86
703.04	862.86
703.16	807.29
703.28	811.43
703.40	785.14
703.52	812.14
703.64	818.14
703.76	811.29
703.88	792.00
704.00	780.14
704.12	793.86
704.24	846.29
704.36	815.71
704.48	806.43
704.60	758.71
704.72	785.29
704.84	787.71
704.96	823.86
705.07	810.43
705.19	765.14
705.31	789.00
705.43	820.57
705.55	781.43
705.67	819.57
705.79	796.86
705.91	738.57
706.03	789.14
706.15	803.14
706.27	779.43
706.39	780.57
706.51	777.57
706.63	781.00
706.75	816.86
706.87	812.29
706.99	862.29
707.11	803.14
707.23	786.00
707.35	825.14
707.47	802.71
707.59	831.29
707.71	839.57
707.83	796.86
707.95	833.57
708.07	795.57
708.19	919.57
708.31	817.29
708.43	769.57
708.55	819.57
708.67	858.00
708.79	811.43
708.91	838.86
709.03	811.43
709.15	845.00
709.27	776.86
709.39	806.71
709.51	792.71
709.63	825.86
709.75	832.29
709.87	759.43
709.99	835.00
710.11	778.14
710.23	777.14
710.35	759.29
710.47	893.29
710.58	852.29
710.70	853.43
710.82	853.14
710.94	802.29
711.06	790.71
711.18	811.71
711.30	783.14
711.42	840.00
711.54	799.00
711.66	825.29
711.78	774.86
711.90	826.14
712.02	865.43
712.14	771.00
712.26	752.43
712.38	847.43
712.50	858.43
712.62	791.00
712.74	783.57
712.86	778.00
712.98	835.00
713.10	772.57
713.22	762.43
713.34	805.29
713.45	773.86
713.57	817.00
713.69	764.00
713.81	780.14
713.93	806.00
714.05	794.14
714.17	749.14
714.29	856.57
714.41	851.86
714.53	788.14
714.65	818.43
714.77	807.71
714.89	760.57
715.01	850.57
715.13	769.71
715.25	808.43
715.37	769.43
715.49	754.29
715.61	820.57
715.72	813.86
715.84	846.00
715.96	789.57
716.08	792.29
716.20	861.86
716.32	847.14
716.44	795.71
716.56	802.57
716.68	807.14
716.80	887.00
716.92	859.00
717.04	816.00
717.16	826.14
717.28	799.29
717.40	787.71
717.52	815.00
717.63	783.57
717.75	810.43
717.87	795.57
717.99	812.86
718.11	787.71
718.23	857.57
718.35	825.86
718.47	808.14
718.59	749.71
718.71	794.14
718.83	781.14
718.95	826.14
719.07	760.14
719.19	787.43
719.30	789.14
719.42	804.00
719.54	792.57
719.66	805.29
719.78	807.00
719.90	744.43
720.02	800.00
720.14	817.43
720.26	843.43
720.38	822.14
720.50	777.00
720.62	733.14
720.74	807.00
720.85	805.43
720.97	858.86
721.09	888.00
721.21	792.71
721.33	876.86
721.45	818.57
721.57	815.57
721.69	772.00
721.81	750.57
721.93	860.86
722.05	812.43
722.16	775.14
722.28	743.14
722.40	778.14
722.52	849.00
722.64	857.29
722.76	773.71
722.88	823.43
723.00	824.43
723.12	783.14
723.24	806.43
723.36	743.71
723.47	843.86
723.59	809.14
723.71	787.86
723.83	825.57
723.95	790.43
724.07	804.43
724.19	826.43
724.31	877.71
724.43	770.57
724.55	736.14
724.66	774.29
724.78	934.86
724.90	771.57
725.02	777.29
725.14	782.86
725.26	801.57
725.38	741.57
725.50	800.00
725.62	810.71
725.74	795.29
725.85	786.00
725.97	800.71
726.09	859.29
726.21	1143.86
726.33	847.14
726.45	795.14
726.57	776.29
726.69	802.00
726.81	804.57
726.92	793.43
727.04	812.14
727.16	822.14
727.28	793.43
727.40	791.29
727.52	804.71
727.64	917.14
727.76	888.14
727.88	832.29
727.99	763.14
728.11	763.00
728.23	788.86
728.35	774.14
728.47	784.86
728.59	791.57
728.71	808.86
728.83	811.86
728.94	831.86
729.06	885.71
729.18	866.14
729.30	824.29
729.42	813.00
729.54	877.43
729.66	887.29
729.78	809.29
729.90	816.57
730.01	785.86
730.13	726.43
730.25	794.29
730.37	789.29
730.49	824.71
730.61	819.57
730.73	811.00
730.84	834.14
730.96	826.29
731.08	818.86
731.20	808.14
731.32	809.57
731.44	952.43
731.56	797.57
731.68	766.71
731.79	811.86
731.91	773.43
732.03	781.43
732.15	795.86
732.27	769.71
732.39	784.43
732.51	838.43
732.62	771.29
732.74	797.86
732.86	850.86
732.98	815.86
733.10	806.57
733.22	816.71
733.34	830.29
733.45	746.29
733.57	795.43
733.69	756.14
733.81	786.00
733.93	805.43
734.05	731.71
734.17	799.14
734.28	803.43
734.40	804.71
734.52	788.71
734.64	788.57
734.76	879.86
734.88	808.14
735.00	761.00
735.11	797.57
735.23	844.00
735.35	787.29
735.47	749.14
735.59	838.14
735.71	798.57
735.83	812.14
735.94	819.86
736.06	800.57
736.18	858.00
736.30	842.14
736.42	828.57
736.54	821.29
736.65	836.57
736.77	959.00
736.89	847.57
737.01	809.57
737.13	902.29
737.25	740.29
737.36	770.43
737.48	795.14
737.60	801.00
737.72	779.86
737.84	798.86
737.96	848.57
738.08	796.43
738.19	891.00
738.31	791.86
738.43	811.86
738.55	809.29
738.67	812.00
738.79	777.57
738.90	809.57
739.02	812.14
739.14	784.00
739.26	802.14
739.38	803.57
739.50	820.14
739.61	809.14
739.73	807.71
739.85	804.57
739.97	815.86
740.09	857.71
740.20	762.29
740.32	812.29
740.44	831.71
740.56	771.00
740.68	800.14
740.80	810.86
740.91	810.00
741.03	845.43
741.15	821.14
741.27	791.14
741.39	845.14
741.51	804.43
741.62	846.00
741.74	806.14
741.86	799.43
741.98	789.71
742.10	815.29
742.21	819.43
742.33	813.00
742.45	777.86
742.57	857.71
742.69	797.29
742.80	842.14
742.92	799.14
743.04	801.14
743.16	788.57
743.28	860.57
743.40	769.29
743.51	771.71
743.63	776.71
743.75	806.14
743.87	797.86
743.99	817.86
744.10	798.43
744.22	810.29
744.34	786.71
744.46	828.57
744.58	816.86
744.69	741.43
744.81	808.71
744.93	757.00
745.05	774.00
745.17	876.57
745.28	875.14
745.40	836.00
745.52	799.29
745.64	818.00
745.76	834.43
745.87	790.71
745.99	780.00
746.11	810.43
746.23	777.86
746.35	805.57
746.46	788.29
746.58	906.14
746.70	815.86
746.82	814.14
746.94	796.00
747.05	774.00
747.17	752.14
747.29	748.71
747.41	794.43
747.53	930.86
747.64	788.43
747.76	850.71
747.88	852.29
748.00	858.43
748.12	819.86
748.23	799.71
748.35	821.29
748.47	848.71
748.59	848.57
748.70	786.14
748.82	768.71
748.94	773.71
749.06	786.14
749.18	793.14
749.29	781.86
749.41	819.29
749.53	806.14
749.65	791.43
749.76	839.00
749.88	791.00
750.00	821.86
750.12	844.57
750.24	824.86
750.35	802.29
750.47	766.00
750.59	832.14
750.71	805.71
750.82	837.00
750.94	773.57
751.06	798.86
751.18	785.71
751.30	833.86
751.41	838.14
751.53	842.43
751.65	782.29
751.77	784.14
751.88	808.71
752.00	843.00
752.12	761.71
752.24	852.29
752.35	826.43
752.47	840.00
752.59	849.00
752.71	882.43
752.83	787.43
752.94	871.71
753.06	786.86
753.18	813.71
753.30	786.71
753.41	749.29
753.53	789.14
753.65	788.86
753.77	851.14
753.88	785.29
754.00	818.57
754.12	813.86
754.24	871.86
754.35	783.43
754.47	750.71
754.59	830.00
754.71	833.00
754.82	808.14
754.94	792.71
755.06	861.29
755.18	826.14
755.29	810.00
755.41	792.14
755.53	829.86
755.65	785.57
755.76	814.14
755.88	811.14
756.00	865.43
756.12	785.00
756.23	716.86
756.35	773.43
756.47	840.71
756.59	790.00
756.70	787.00
756.82	784.57
756.94	786.86
757.06	821.29
757.17	817.29
757.29	801.86
757.41	756.71
757.53	827.71
757.64	807.57
757.76	813.86
757.88	824.86
758.00	829.71
758.11	790.86
758.23	766.00
758.35	827.86
758.47	770.00
758.58	822.00
758.70	762.57
758.82	786.14
758.94	770.57
759.05	805.43
759.17	756.86
759.29	800.57
759.40	861.86
759.52	795.71
759.64	790.14
759.76	809.86
759.87	831.14
759.99	828.71
760.11	789.57
760.23	816.29
760.34	846.57
760.46	819.57
760.58	791.29
760.70	806.43
760.81	854.86
760.93	818.43
761.05	835.00
761.16	821.86
761.28	792.86
761.40	785.14
761.52	773.86
761.63	851.29
761.75	830.57
761.87	786.57
761.98	765.00
762.10	838.29
762.22	807.57
762.34	847.29
762.45	793.00
762.57	840.43
762.69	926.57
762.81	806.86
762.92	833.86
763.04	756.00
763.16	825.00
763.27	841.14
763.39	792.29
763.51	837.14
763.63	832.00
763.74	785.14
763.86	759.57
763.98	771.14
764.09	789.43
764.21	815.86
764.33	770.00
764.44	782.57
764.56	809.29
764.68	779.71
764.80	813.14
764.91	756.57
765.03	864.57
765.15	804.14
765.26	795.00
765.38	767.57
765.50	839.57
765.62	807.57
765.73	802.29
765.85	816.71
765.97	761.14
766.08	805.29
766.20	819.43
766.32	819.86
766.43	845.43
766.55	832.29
766.67	800.14
766.79	806.29
766.90	782.14
767.02	747.86
767.14	766.43
767.25	764.00
767.37	893.86
767.49	831.43
767.60	799.86
767.72	851.86
767.84	830.71
767.95	797.29
768.07	773.43
768.19	825.43
768.31	831.43
768.42	809.57
768.54	801.86
768.66	801.14
768.77	844.86
768.89	809.14
769.01	786.29
769.12	828.71
769.24	821.43
769.36	775.71
769.47	777.57
769.59	766.29
769.71	827.29
769.82	797.86
769.94	787.29
770.06	766.57
770.17	842.00
770.29	819.57
770.41	836.86
770.53	822.57
770.64	768.71
770.76	810.57
770.88	829.43
770.99	831.29
771.11	772.29
771.23	820.71
771.34	811.43
771.46	897.57
771.58	866.57
771.69	833.43
771.81	810.14
771.93	849.57
772.04	779.71
772.16	839.00
772.28	813.00
772.39	848.86
772.51	805.00
772.63	830.57
772.74	801.00
772.86	803.71
772.98	916.86
773.09	780.86
773.21	793.00
773.33	825.14
773.44	829.14
773.56	806.14
773.68	813.29
773.79	862.71
773.91	799.00
774.03	817.71
774.14	804.71
774.26	852.86
774.38	776.71
774.49	771.29
774.61	807.71
774.73	815.14
774.84	801.71
774.96	783.14
775.08	809.57
775.19	826.86
775.31	858.14
775.43	814.00
775.54	791.57
775.66	752.71
775.77	845.57
775.89	772.71
776.01	838.29
776.12	854.71
776.24	829.29
776.36	771.00
776.47	787.00
776.59	819.43
776.71	850.43
776.82	743.43
776.94	765.86
777.06	793.57
777.17	873.71
777.29	773.71
777.41	781.29
777.52	826.14
777.64	819.14
777.75	838.86
777.87	754.00
777.99	795.00
778.10	854.14
778.22	793.00
778.34	818.00
778.45	801.29
778.57	849.71
778.69	843.71
778.80	821.43
778.92	901.57
779.04	828.71
779.15	811.00
779.27	848.14
779.38	837.29
779.50	868.14
779.62	764.86
779.73	806.29
779.85	753.14
779.97	911.71
780.08	814.86
780.20	805.14
780.31	838.57
780.43	847.86
780.55	793.43
780.66	821.00
780.78	826.71
780.90	907.29
781.01	792.14
781.13	806.14
781.25	802.43
781.36	854.14
781.48	786.57
781.59	807.71
781.71	846.71
781.83	830.71
781.94	778.43
782.06	784.71
782.18	849.14
782.29	805.43
782.41	763.57
782.52	851.86
782.64	862.57
782.76	821.43
782.87	824.86
782.99	802.29
783.10	932.57
783.22	941.43
783.34	813.43
783.45	813.71
783.57	809.00
783.69	790.29
783.80	825.29
783.92	838.43
784.03	814.43
784.15	783.00
784.27	807.00
784.38	790.14
784.50	818.14
784.61	818.14
784.73	785.86
784.85	795.43
784.96	790.71
785.08	871.43
785.19	854.43
785.31	799.43
785.43	781.57
785.54	780.57
785.66	847.14
785.77	821.14
785.89	831.86
786.01	761.57
786.12	802.29
786.24	818.14
786.35	886.43
786.47	827.71
786.59	793.29
786.70	773.43
786.82	823.14
786.93	830.29
787.05	805.57
787.17	830.57
787.28	803.57
787.40	817.57
787.51	821.57
787.63	830.14
787.75	778.29
787.86	826.14
787.98	841.29
788.09	806.71
788.21	825.71
788.33	846.14
788.44	829.86
788.56	788.00
788.67	837.86
788.79	795.71
788.91	815.00
789.02	795.14
789.14	799.14
789.25	895.71
789.37	842.57
789.48	796.14
789.60	827.71
789.72	778.57
789.83	834.71
789.95	820.14
790.06	764.14
790.18	784.86
790.30	842.43
790.41	825.29
790.53	790.57
790.64	772.00
790.76	773.29
790.87	800.00
790.99	812.71
791.11	821.14
791.22	786.43
791.34	809.43
791.45	842.29
791.57	836.14
791.68	800.43
791.80	784.71
791.92	838.86
792.03	785.29
792.15	769.00
792.26	793.43
792.38	762.86
792.49	829.71
792.61	803.43
792.73	821.29
792.84	813.00
792.96	905.00
793.07	802.71
793.19	1561.14
793.30	894.43
793.42	846.29
793.54	752.43
793.65	763.86
793.77	939.57
793.88	800.43
794.00	763.29
794.11	805.86
794.23	748.14
794.34	814.86
794.46	751.43
794.58	760.29
794.69	888.71
794.81	885.71
794.92	776.71
795.04	776.14
795.15	887.71
795.27	840.29
795.39	812.86
795.50	783.29
795.62	787.29
795.73	799.43
795.85	782.43
795.96	820.57
796.08	864.71
796.19	791.14
796.31	799.57
796.42	775.43
796.54	783.00
796.66	837.00
796.77	771.43
796.89	757.57
797.00	851.14
797.12	736.57
797.23	794.86
797.35	824.57
797.46	840.71
797.58	860.57
797.69	824.00
797.81	803.14
797.93	800.29
798.04	784.00
798.16	784.43
798.27	818.71
798.39	776.43
798.50	766.57
798.62	763.00
798.73	769.00
798.85	883.43
798.96	813.29
799.08	830.29
799.19	838.29
799.31	811.57
799.43	799.29
799.54	787.57
799.66	818.29
799.77	838.71
799.89	781.86
800.00	744.43
800.12	801.57
800.23	860.43
800.35	881.29
800.46	745.43
800.58	734.86
800.69	800.86
800.81	787.29
800.92	760.29
801.04	805.43
801.16	745.86
801.27	748.57
801.39	770.00
801.50	784.29
801.62	790.00
801.73	843.29
801.85	841.29
801.96	766.86
802.08	851.71
802.19	851.86
802.31	791.86
802.42	808.71
802.54	881.71
802.65	856.57
802.77	774.86
802.88	842.71
803.00	768.57
803.11	901.14
803.23	811.86
803.34	809.14
803.46	828.43
803.57	768.00
803.69	832.43
803.80	771.43
803.92	850.43
804.03	789.00
804.15	815.00
804.26	832.29
804.38	835.14
804.50	776.86
804.61	816.57
804.73	807.29
804.84	810.00
804.96	733.43
805.07	802.71
805.19	777.00
805.30	822.00
805.42	850.57
805.53	804.43
805.65	778.14
805.76	758.71
805.88	790.14
805.99	818.29
806.11	830.57
806.22	781.43
806.34	788.57
806.45	810.00
806.57	789.71
806.68	833.29
806.80	736.57
806.91	774.00
807.03	764.71
807.14	738.43
807.26	749.14
807.37	754.86
807.49	806.43
807.60	780.43
807.72	865.71
807.83	879.29
807.95	808.14
808.06	818.57
808.17	812.57
808.29	833.57
808.40	772.57
808.52	801.43
808.63	807.71
808.75	817.57
808.86	809.14
808.98	820.86
809.09	782.43
809.21	819.00
809.32	782.00
809.44	832.14
809.55	767.71
809.67	815.57
809.78	779.43
809.90	835.29
810.01	864.57
810.13	787.14
810.24	832.71
810.36	760.14
810.47	777.71
810.59	802.29
810.70	827.00
810.82	848.43
810.93	763.29
811.05	775.29
811.16	787.57
811.27	763.14
811.39	814.29
811.50	848.86
811.62	758.86
811.73	733.14
811.85	821.43
811.96	810.57
812.08	832.57
812.19	813.43
812.31	830.86
812.42	799.43
812.54	783.43
812.65	851.29
812.77	852.86
812.88	838.57
813.00	839.86
813.11	830.86
813.22	783.86
813.34	784.71
813.45	810.71
813.57	883.43
813.68	894.29
813.80	813.57
813.91	774.29
814.03	797.57
814.14	888.71
814.26	792.29
814.37	814.29
814.49	808.29
814.60	787.29
814.71	786.00
814.83	807.00
814.94	770.71
815.06	795.00
815.17	805.14
815.29	797.71
815.40	772.43
815.52	885.43
815.63	798.29
815.75	775.71
815.86	816.86
815.97	767.29
816.09	803.86
816.20	823.43
816.32	828.29
816.43	760.43
816.55	819.29
816.66	794.57
816.78	887.86
816.89	807.71
817.00	809.29
817.12	783.71
817.23	776.43
817.35	848.14
817.46	820.43
817.58	776.14
817.69	923.57
817.81	820.14
817.92	845.29
818.03	822.57
818.15	814.86
818.26	777.86
818.38	771.00
818.49	803.86
818.61	822.57
818.72	773.29
818.83	1646.14
818.95	914.00
819.06	786.57
819.18	790.29
819.29	819.86
819.41	809.71
819.52	822.43
819.64	813.71
819.75	786.14
819.86	765.86
819.98	794.29
820.09	834.29
820.21	815.14
820.32	777.86
820.44	826.29
820.55	874.71
820.66	791.71
820.78	842.86
820.89	805.00
821.01	830.29
821.12	817.14
821.23	819.00
821.35	790.43
821.46	853.14
821.58	812.14
821.69	800.14
821.81	787.43
821.92	867.14
822.03	806.71
822.15	824.29
822.26	773.86
822.38	783.43
822.49	824.14
822.61	818.43
822.72	825.86
822.83	863.14
822.95	807.43
823.06	822.71
823.18	857.86
823.29	880.00
823.40	834.57
823.52	801.43
823.63	768.29
823.75	901.43
823.86	813.00
823.97	766.14
824.09	842.71
824.20	775.14
824.32	821.14
824.43	803.71
824.55	847.43
824.66	900.14
824.77	811.71
824.89	827.29
825.00	875.14
825.12	817.00
825.23	838.43
825.34	767.29
825.46	779.71
825.57	840.86
825.69	793.57
825.80	742.14
825.91	782.14
826.03	761.14
826.14	834.14
826.26	780.29
826.37	816.43
826.48	794.71
826.60	810.57
826.71	787.57
826.83	821.71
826.94	823.00
827.05	863.43
827.17	849.14
827.28	806.86
827.39	799.00
827.51	777.43
827.62	805.57
827.74	811.57
827.85	796.29
827.96	793.29
828.08	799.29
828.19	898.57
828.31	803.86
828.42	757.00
828.53	831.00
828.65	857.14
828.76	861.43
828.87	831.71
828.99	778.86
