Wavelength (nm)	Intensity
377.35	799.11
377.48	595.22
377.62	618.11
377.75	609.44
377.88	815.67
378.02	797.00
378.15	803.67
378.28	774.44
378.41	837.22
378.55	810.00
378.68	805.11
378.81	780.11
378.95	807.89
379.08	790.67
379.21	764.22
379.35	821.33
379.48	823.56
379.61	877.67
379.74	802.00
379.88	783.00
380.01	859.56
380.14	912.00
380.28	846.11
380.41	773.33
380.54	811.11
380.68	831.44
380.81	747.67
380.94	829.89
381.07	873.00
381.21	871.33
381.34	799.89
381.47	746.22
381.61	935.89
381.74	803.78
381.87	772.33
382.00	826.00
382.14	882.22
382.27	840.11
382.40	776.78
382.54	867.00
382.67	861.89
382.80	776.11
382.93	784.44
383.07	806.22
383.20	801.78
383.33	835.89
383.47	779.67
383.60	764.33
383.73	942.89
383.86	829.78
384.00	796.33
384.13	792.00
384.26	835.89
384.40	853.67
384.53	807.56
384.66	852.67
384.79	823.22
384.93	791.78
385.06	797.78
385.19	820.44
385.33	917.44
385.46	838.89
385.59	781.22
385.72	823.89
385.86	767.89
385.99	794.78
386.12	796.11
386.25	776.89
386.39	846.33
386.52	861.56
386.65	798.11
386.79	800.89
386.92	787.56
387.05	883.89
387.18	758.44
387.32	776.00
387.45	832.56
387.58	811.78
387.71	797.78
387.85	782.56
387.98	827.67
388.11	840.22
388.25	825.11
388.38	806.56
388.51	839.44
388.64	846.33
388.78	787.56
388.91	763.33
389.04	798.67
389.17	909.67
389.31	817.78
389.44	834.67
389.57	862.22
389.70	829.33
389.84	785.56
389.97	789.44
390.10	787.78
390.24	828.67
390.37	802.22
390.50	791.78
390.63	867.56
390.77	803.33
390.90	814.44
391.03	804.67
391.16	764.00
391.30	787.78
391.43	797.00
391.56	791.44
391.69	780.44
391.83	848.78
391.96	810.89
392.09	792.89
392.22	891.33
392.36	827.89
392.49	775.33
392.62	797.67
392.75	830.67
392.89	865.56
393.02	771.33
393.15	772.44
393.28	761.78
393.42	885.89
393.55	760.44
393.68	790.44
393.81	741.00
393.95	789.89
394.08	783.78
394.21	784.67
394.34	838.00
394.48	829.11
394.61	838.89
394.74	822.78
394.87	851.67
395.01	825.11
395.14	839.00
395.27	788.78
395.40	897.56
395.54	892.22
395.67	806.11
395.80	795.56
395.93	839.78
396.07	786.00
396.20	786.33
396.33	740.78
396.46	785.44
396.59	798.67
396.73	795.00
396.86	776.22
396.99	858.44
397.12	814.44
397.26	808.11
397.39	803.56
397.52	1081.11
397.65	909.44
397.79	808.11
397.92	793.33
398.05	851.44
398.18	787.56
398.32	793.22
398.45	830.33
398.58	823.89
398.71	830.89
398.84	769.11
398.98	804.56
399.11	828.78
399.24	825.33
399.37	796.11
399.51	769.00
399.64	803.67
399.77	807.67
399.90	805.11
400.03	805.22
400.17	760.56
400.30	862.33
400.43	830.44
400.56	809.56
400.70	810.56
400.83	782.00
400.96	781.67
401.09	810.22
401.23	812.22
401.36	868.67
401.49	790.56
401.62	807.33
401.75	795.33
401.89	776.11
402.02	795.00
402.15	807.22
402.28	826.78
402.41	817.44
402.55	784.44
402.68	795.67
402.81	870.78
402.94	843.89
403.08	784.78
403.21	768.67
403.34	839.00
403.47	839.11
403.60	794.78
403.74	829.56
403.87	843.89
404.00	773.89
404.13	783.33
404.26	765.67
404.40	771.44
404.53	821.56
404.66	801.11
404.79	769.00
404.93	839.67
405.06	788.78
405.19	750.11
405.32	809.00
405.45	826.89
405.59	847.00
405.72	804.89
405.85	777.33
405.98	970.89
406.11	781.00
406.25	777.56
406.38	792.00
406.51	832.00
406.64	805.44
406.77	761.56
406.91	758.00
407.04	824.00
407.17	795.44
407.30	824.56
407.43	801.89
407.57	877.89
407.70	855.89
407.83	776.44
407.96	806.89
408.09	770.89
408.23	891.78
408.36	807.33
408.49	798.56
408.62	913.56
408.75	816.67
408.89	782.22
409.02	823.00
409.15	801.78
409.28	876.00
409.41	832.67
409.55	790.67
409.68	922.11
409.81	821.67
409.94	783.00
410.07	813.44
410.20	809.89
410.34	797.89
410.47	808.67
410.60	811.22
410.73	838.89
410.86	780.67
411.00	805.11
411.13	778.22
411.26	806.56
411.39	810.11
411.52	823.67
411.66	793.22
411.79	791.44
411.92	777.11
412.05	800.67
412.18	790.89
412.31	829.00
412.45	840.78
412.58	839.78
412.71	769.78
412.84	824.67
412.97	880.22
413.11	811.89
413.24	819.22
413.37	847.22
413.50	903.33
413.63	824.56
413.76	796.67
413.90	836.33
414.03	791.67
414.16	790.56
414.29	825.22
414.42	801.67
414.56	907.22
414.69	784.78
414.82	804.00
414.95	808.56
415.08	825.44
415.21	801.00
415.35	822.33
415.48	733.44
415.61	849.22
415.74	855.11
415.87	766.89
416.00	811.67
416.14	915.44
416.27	811.11
416.40	779.67
416.53	801.56
416.66	822.33
416.79	810.89
416.93	776.89
417.06	860.78
417.19	807.89
417.32	796.67
417.45	791.33
417.58	763.78
417.72	856.67
417.85	783.56
417.98	803.11
418.11	836.89
418.24	790.67
418.37	793.00
418.51	808.22
418.64	811.56
418.77	881.56
418.90	819.78
419.03	771.00
419.16	823.67
419.29	845.00
419.43	790.44
419.56	773.44
419.69	912.56
419.82	855.00
419.95	802.22
420.08	846.00
420.22	869.56
420.35	927.78
420.48	845.89
420.61	800.33
420.74	752.89
420.87	837.56
421.00	766.44
421.14	788.67
421.27	850.56
421.40	878.44
421.53	823.00
421.66	805.89
421.79	797.11
421.93	804.33
422.06	807.33
422.19	779.56
422.32	850.44
422.45	850.33
422.58	813.56
422.71	791.56
422.85	850.44
422.98	843.11
423.11	762.11
423.24	757.67
423.37	772.78
423.50	784.44
423.63	804.89
423.77	779.44
423.90	767.44
424.03	820.89
424.16	835.56
424.29	802.44
424.42	754.00
424.55	775.56
424.69	771.89
424.82	809.22
424.95	817.00
425.08	775.33
425.21	826.89
425.34	789.56
425.47	804.00
425.60	819.11
425.74	757.44
425.87	786.67
426.00	802.89
426.13	820.33
426.26	773.22
426.39	781.33
426.52	794.89
426.66	872.56
426.79	834.44
426.92	778.22
427.05	898.78
427.18	871.78
427.31	802.11
427.44	796.78
427.57	779.00
427.71	803.89
427.84	771.78
427.97	806.56
428.10	860.56
428.23	813.78
428.36	786.56
428.49	720.00
428.62	928.67
428.76	899.11
428.89	814.89
429.02	756.22
429.15	798.11
429.28	901.33
429.41	784.67
429.54	800.67
429.67	790.78
429.81	832.78
429.94	808.22
430.07	793.44
430.20	845.22
430.33	861.11
430.46	773.00
430.59	773.11
430.72	805.33
430.85	761.44
430.99	796.89
431.12	771.44
431.25	854.44
431.38	871.44
431.51	806.00
431.64	807.56
431.77	882.44
431.90	877.44
432.03	807.11
432.17	779.00
432.30	815.33
432.43	829.56
432.56	807.33
432.69	828.78
432.82	819.11
432.95	865.56
433.08	808.00
433.21	805.78
433.35	795.67
433.48	803.22
433.61	766.44
433.74	799.33
433.87	784.00
434.00	842.33
434.13	784.67
434.26	833.11
434.39	824.33
434.53	829.00
434.66	801.89
434.79	797.00
434.92	795.67
435.05	867.89
435.18	781.78
435.31	824.22
435.44	864.33
435.57	813.00
435.70	803.89
435.84	779.44
435.97	878.89
436.10	916.11
436.23	790.44
436.36	770.44
436.49	792.33
436.62	818.33
436.75	793.00
436.88	826.78
437.01	783.00
437.14	769.33
437.28	747.89
437.41	788.11
437.54	866.78
437.67	835.11
437.80	777.11
437.93	752.00
438.06	921.00
438.19	851.78
438.32	773.00
438.45	777.44
438.58	828.11
438.72	881.11
438.85	834.56
438.98	796.44
439.11	820.78
439.24	870.78
439.37	862.00
439.50	834.78
439.63	854.00
439.76	787.11
439.89	777.56
440.02	789.78
440.15	829.56
440.29	869.89
440.42	803.89
440.55	802.11
440.68	883.56
440.81	922.67
440.94	816.89
441.07	810.00
441.20	901.33
441.33	831.00
441.46	798.00
441.59	790.56
441.72	806.78
441.85	810.44
441.99	841.67
442.12	842.00
442.25	894.22
442.38	832.44
442.51	823.89
442.64	762.56
442.77	809.44
442.90	792.67
443.03	766.11
443.16	788.33
443.29	807.33
443.42	875.56
443.55	791.00
443.68	819.44
443.82	760.89
443.95	787.22
444.08	789.67
444.21	804.11
444.34	779.89
444.47	801.22
444.60	805.00
444.73	818.67
444.86	810.67
444.99	863.78
445.12	825.00
445.25	814.11
445.38	818.22
445.51	849.89
445.64	814.89
445.78	794.44
445.91	753.78
446.04	911.11
446.17	853.33
446.30	757.78
446.43	831.44
446.56	811.11
446.69	777.78
446.82	787.33
446.95	842.11
447.08	851.78
447.21	816.78
447.34	793.78
447.47	852.22
447.60	840.33
447.73	808.78
447.86	833.22
447.99	818.44
448.13	823.00
448.26	834.56
448.39	793.67
448.52	836.56
448.65	848.78
448.78	806.11
448.91	801.78
449.04	830.56
449.17	790.00
449.30	827.00
449.43	815.89
449.56	805.78
449.69	864.89
449.82	801.44
449.95	761.22
450.08	860.56
450.21	833.00
450.34	805.22
450.47	797.67
450.60	838.56
450.73	814.00
450.87	796.56
451.00	815.11
451.13	844.11
451.26	953.33
451.39	793.67
451.52	824.33
451.65	802.11
451.78	796.89
451.91	792.00
452.04	779.00
452.17	892.56
452.30	884.33
452.43	793.22
452.56	789.89
452.69	851.00
452.82	778.89
452.95	830.67
453.08	779.56
453.21	735.33
453.34	852.56
453.47	791.11
453.60	851.00
453.73	899.67
453.86	838.00
453.99	824.11
454.12	826.00
454.25	802.44
454.38	818.11
454.52	774.89
454.65	796.22
454.78	787.56
454.91	756.44
455.04	789.67
455.17	768.67
455.30	781.89
455.43	863.89
455.56	794.44
455.69	764.11
455.82	833.67
455.95	822.89
456.08	766.44
456.21	770.56
456.34	754.00
456.47	742.00
456.60	793.89
456.73	784.56
456.86	794.11
456.99	822.78
457.12	775.00
457.25	785.11
457.38	856.67
457.51	829.00
457.64	810.89
457.77	789.11
457.90	801.11
458.03	791.56
458.16	792.56
458.29	805.89
458.42	793.56
458.55	751.67
458.68	771.67
458.81	788.56
458.94	867.67
459.07	907.33
459.20	761.33
459.33	776.56
459.46	863.33
459.59	899.67
459.72	865.56
459.85	801.22
459.98	881.89
460.11	837.56
460.24	810.67
460.37	762.89
460.50	846.67
460.63	807.44
460.76	792.56
460.89	806.56
461.02	829.89
461.15	832.56
461.28	799.78
461.41	793.78
461.54	880.44
461.67	773.11
461.80	811.78
461.93	850.67
462.06	827.67
462.19	856.22
462.32	793.00
462.45	784.00
462.58	835.78
462.71	789.56
462.84	804.44
462.97	750.22
463.10	798.44
463.23	813.11
463.36	834.67
463.49	809.67
463.62	757.22
463.75	830.22
463.88	793.33
464.01	807.11
464.14	770.78
464.27	890.56
464.40	793.44
464.53	795.67
464.66	829.11
464.79	823.67
464.92	811.33
465.05	777.78
465.18	803.67
465.31	805.44
465.44	799.56
465.57	778.00
465.70	787.67
465.83	909.89
465.96	814.56
466.09	778.67
466.22	847.22
466.35	828.67
466.48	778.67
466.61	780.44
466.74	794.78
466.87	845.78
467.00	839.00
467.13	830.22
467.26	843.22
467.39	762.44
467.52	759.22
467.65	796.56
467.78	871.67
467.91	813.56
468.04	812.56
468.17	781.67
468.30	792.00
468.43	758.67
468.56	775.56
468.69	823.78
468.82	835.11
468.95	768.33
469.08	788.89
469.21	798.44
469.34	833.56
469.47	901.22
469.60	884.33
469.73	809.44
469.86	819.89
469.99	851.56
470.11	779.67
470.24	782.78
470.37	836.67
470.50	818.11
470.63	785.00
470.76	801.22
470.89	849.78
471.02	907.78
471.15	788.33
471.28	794.89
471.41	893.00
471.54	828.56
471.67	793.00
471.80	743.11
471.93	846.33
472.06	822.11
472.19	797.78
472.32	772.22
472.45	909.67
472.58	848.67
472.71	814.22
472.84	788.00
472.97	776.89
473.10	763.67
473.23	840.22
473.36	753.22
473.49	862.67
473.62	843.33
473.74	825.33
473.87	842.00
474.00	773.44
474.13	777.33
474.26	815.78
474.39	844.56
474.52	811.78
474.65	790.33
474.78	802.33
474.91	757.11
475.04	826.33
475.17	923.22
475.30	832.22
475.43	818.00
475.56	856.22
475.69	803.78
475.82	828.56
475.95	775.44
476.08	870.44
476.21	811.56
476.34	848.89
476.46	836.44
476.59	865.56
476.72	795.89
476.85	796.33
476.98	768.33
477.11	853.33
477.24	813.00
477.37	748.78
477.50	786.89
477.63	818.67
477.76	778.44
477.89	739.89
478.02	766.56
478.15	804.00
478.28	792.00
478.41	822.33
478.54	792.22
478.66	845.22
478.79	799.33
478.92	796.67
479.05	797.44
479.18	810.56
479.31	773.44
479.44	784.00
479.57	778.33
479.70	793.44
479.83	818.33
479.96	785.11
480.09	822.89
480.22	936.11
480.35	911.22
480.48	848.56
480.60	813.78
480.73	789.22
480.86	824.22
480.99	796.44
481.12	792.44
481.25	804.56
481.38	865.78
481.51	796.00
481.64	803.89
481.77	829.33
481.90	801.00
482.03	801.78
482.16	793.33
482.29	863.11
482.41	809.33
482.54	835.00
482.67	780.22
482.80	799.67
482.93	850.00
483.06	774.33
483.19	857.78
483.32	827.67
483.45	806.33
483.58	815.11
483.71	841.44
483.84	847.33
483.97	831.33
484.09	810.00
484.22	790.78
484.35	777.67
484.48	752.89
484.61	782.78
484.74	785.89
484.87	817.89
485.00	764.11
485.13	822.11
485.26	771.00
485.39	832.22
485.52	800.67
485.64	870.78
485.77	835.44
485.90	863.11
486.03	771.67
486.16	816.78
486.29	774.56
486.42	801.67
486.55	821.67
486.68	799.44
486.81	826.56
486.94	811.11
487.06	789.33
487.19	837.67
487.32	831.44
487.45	816.33
487.58	785.67
487.71	803.11
487.84	766.00
487.97	833.33
488.10	848.89
488.23	782.44
488.35	753.56
488.48	788.56
488.61	770.00
488.74	786.56
488.87	785.67
489.00	817.44
489.13	891.44
489.26	837.11
489.39	833.44
489.52	841.00
489.64	831.78
489.77	815.67
489.90	809.33
490.03	801.56
490.16	784.56
490.29	783.56
490.42	783.33
490.55	813.56
490.68	774.78
490.81	790.67
490.93	758.22
491.06	862.67
491.19	832.89
491.32	818.78
491.45	829.11
491.58	762.56
491.71	798.11
491.84	787.33
491.97	789.44
492.09	863.44
492.22	828.22
492.35	815.67
492.48	844.00
492.61	821.44
492.74	810.78
492.87	822.44
493.00	804.89
493.12	777.67
493.25	802.78
493.38	802.33
493.51	779.56
493.64	762.11
493.77	806.33
493.90	829.22
494.03	827.00
494.16	862.22
494.28	866.56
494.41	798.11
494.54	800.22
494.67	912.89
494.80	872.56
494.93	800.78
495.06	828.56
495.19	832.11
495.31	810.11
495.44	793.78
495.57	775.89
495.70	831.33
495.83	806.78
495.96	770.11
496.09	811.44
496.22	871.56
496.34	899.78
496.47	808.44
496.60	833.44
496.73	860.44
496.86	850.33
496.99	779.33
497.12	808.56
497.24	749.89
497.37	809.00
497.50	799.67
497.63	775.33
497.76	803.56
497.89	862.44
498.02	838.89
498.15	730.78
498.27	809.11
498.40	854.22
498.53	880.67
498.66	833.78
498.79	856.89
498.92	770.44
499.05	822.11
499.17	805.44
499.30	844.67
499.43	893.89
499.56	830.11
499.69	760.22
499.82	821.33
499.95	788.78
500.07	787.22
500.20	806.56
500.33	848.33
500.46	946.11
500.59	820.22
500.72	814.33
500.85	860.78
500.97	851.22
501.10	855.67
501.23	774.33
501.36	818.00
501.49	882.44
501.62	833.22
501.75	818.11
501.87	859.56
502.00	764.56
502.13	820.56
502.26	818.22
502.39	793.56
502.52	796.11
502.64	752.33
502.77	780.11
502.90	839.56
503.03	805.33
503.16	784.22
503.29	780.78
503.42	858.33
503.54	816.56
503.67	818.67
503.80	814.22
503.93	852.67
504.06	780.67
504.19	809.67
504.31	862.22
504.44	819.89
504.57	832.67
504.70	822.56
504.83	768.44
504.96	827.78
505.08	808.33
505.21	822.44
505.34	913.11
505.47	863.78
505.60	837.44
505.73	862.00
505.85	847.78
505.98	936.11
506.11	808.44
506.24	776.22
506.37	781.33
506.50	821.33
506.62	851.56
506.75	794.22
506.88	783.00
507.01	826.11
507.14	764.67
507.27	800.56
507.39	774.33
507.52	789.00
507.65	795.22
507.78	828.11
507.91	780.56
508.04	870.67
508.16	866.11
508.29	827.44
508.42	796.00
508.55	773.33
508.68	788.11
508.81	853.44
508.93	789.78
509.06	801.00
509.19	838.44
509.32	833.44
509.45	819.78
509.57	830.89
509.70	783.78
509.83	811.89
509.96	774.11
510.09	812.67
510.22	806.56
510.34	815.11
510.47	805.89
510.60	905.56
510.73	821.78
510.86	826.44
510.98	798.89
511.11	791.33
511.24	859.11
511.37	842.00
511.50	808.00
511.63	825.22
511.75	816.33
511.88	812.33
512.01	835.33
512.14	818.44
512.27	821.11
512.39	809.56
512.52	799.11
512.65	817.22
512.78	779.00
512.91	814.67
513.03	814.00
513.16	850.89
513.29	818.89
513.42	798.67
513.55	773.22
513.67	828.11
513.80	755.56
513.93	788.44
514.06	786.00
514.19	823.89
514.31	822.00
514.44	845.67
514.57	797.33
514.70	816.11
514.83	865.78
514.95	794.33
515.08	821.67
515.21	835.44
515.34	819.00
515.47	816.22
515.59	785.33
515.72	831.22
515.85	839.56
515.98	861.78
516.11	820.67
516.23	845.67
516.36	877.67
516.49	833.67
516.62	819.89
516.75	876.11
516.87	865.78
517.00	790.78
517.13	838.33
517.26	862.67
517.39	837.11
517.51	757.67
517.64	808.11
517.77	883.00
517.90	778.67
518.02	806.33
518.15	778.56
518.28	737.56
518.41	808.56
518.54	809.78
518.66	818.56
518.79	778.89
518.92	791.44
519.05	775.11
519.18	806.00
519.30	832.56
519.43	772.11
519.56	787.56
519.69	794.78
519.81	856.89
519.94	796.33
520.07	741.11
520.20	788.89
520.33	819.00
520.45	870.33
520.58	818.78
520.71	826.22
520.84	858.44
520.96	826.56
521.09	802.89
521.22	790.67
521.35	844.56
521.48	843.33
521.60	789.78
521.73	808.22
521.86	867.11
521.99	889.89
522.11	827.22
522.24	810.33
522.37	839.78
522.50	822.22
522.62	860.78
522.75	756.00
522.88	820.89
523.01	795.33
523.14	837.89
523.26	831.33
523.39	884.22
523.52	791.11
523.65	894.89
523.77	845.56
523.90	817.89
524.03	796.56
524.16	798.89
524.28	794.11
524.41	797.78
524.54	807.22
524.67	773.33
524.79	791.56
524.92	830.56
525.05	881.89
525.18	779.22
525.31	845.22
525.43	779.89
525.56	919.89
525.69	791.11
525.82	745.22
525.94	850.11
526.07	844.78
526.20	831.67
526.33	849.78
526.45	928.89
526.58	904.56
526.71	832.89
526.84	810.78
526.96	820.78
527.09	786.11
527.22	795.33
527.35	799.67
527.47	773.56
527.60	872.33
527.73	782.00
527.86	842.11
527.98	832.89
528.11	836.11
528.24	777.56
528.37	805.00
528.49	773.00
528.62	810.44
528.75	848.11
528.88	791.78
529.00	839.67
529.13	853.00
529.26	817.56
529.39	842.33
529.51	935.22
529.64	912.56
529.77	789.78
529.90	796.33
530.02	796.89
530.15	790.56
530.28	745.22
530.40	780.56
530.53	804.67
530.66	833.22
530.79	795.56
530.91	812.00
531.04	787.00
531.17	798.44
531.30	802.56
531.42	803.89
531.55	814.56
531.68	865.00
531.81	787.67
531.93	806.67
532.06	824.67
532.19	769.00
532.31	807.44
532.44	795.22
532.57	833.78
532.70	787.00
532.82	816.78
532.95	843.33
533.08	873.67
533.21	836.67
533.33	781.89
533.46	788.78
533.59	796.00
533.71	913.89
533.84	821.11
533.97	797.56
534.10	790.22
534.22	780.22
534.35	806.89
534.48	817.11
534.61	830.11
534.73	746.22
534.86	776.56
534.99	822.89
535.11	861.56
535.24	821.44
535.37	781.44
535.50	771.33
535.62	774.00
535.75	865.44
535.88	813.33
536.00	785.44
536.13	795.22
536.26	798.89
536.39	787.89
536.51	763.56
536.64	823.56
536.77	804.89
536.89	798.56
537.02	810.33
537.15	828.56
537.28	810.89
537.40	825.78
537.53	792.67
537.66	852.67
537.78	817.11
537.91	772.11
538.04	790.44
538.17	847.11
538.29	827.89
538.42	882.56
538.55	865.44
538.67	842.22
538.80	790.33
538.93	826.89
539.05	813.22
539.18	868.67
539.31	848.00
539.44	825.22
539.56	741.33
539.69	799.44
539.82	789.11
539.94	774.56
540.07	776.22
540.20	865.33
540.32	782.89
540.45	806.11
540.58	794.67
540.71	852.22
540.83	763.11
540.96	787.89
541.09	799.89
541.21	880.56
541.34	866.78
541.47	780.22
541.59	810.22
541.72	884.44
541.85	949.67
541.98	864.33
542.10	808.67
542.23	825.89
542.36	925.78
542.48	817.89
542.61	803.67
542.74	779.22
542.86	791.67
542.99	802.56
543.12	783.33
543.24	818.56
543.37	755.56
543.50	793.67
543.62	785.56
543.75	798.89
543.88	792.22
544.01	818.89
544.13	837.44
544.26	834.44
544.39	785.00
544.51	788.33
544.64	768.78
544.77	826.78
544.89	787.78
545.02	812.22
545.15	791.67
545.27	890.33
545.40	855.44
545.53	838.56
545.65	830.89
545.78	738.00
545.91	766.78
546.03	790.22
546.16	809.56
546.29	789.22
546.41	761.22
546.54	792.56
546.67	768.67
546.79	840.22
546.92	879.22
547.05	761.33
547.17	808.33
547.30	780.11
547.43	832.56
547.56	770.56
547.68	809.44
547.81	762.33
547.94	829.44
548.06	794.00
548.19	771.44
548.32	866.78
548.44	819.22
548.57	820.89
548.70	838.33
548.82	849.22
548.95	837.89
549.08	804.78
549.20	799.11
549.33	891.89
549.45	807.56
549.58	792.44
549.71	759.78
549.83	847.56
549.96	760.56
550.09	808.56
550.21	785.33
550.34	813.00
550.47	793.00
550.59	796.00
550.72	738.56
550.85	805.33
550.97	859.89
551.10	789.78
551.23	799.11
551.35	865.44
551.48	822.00
551.61	799.56
551.73	790.44
551.86	877.67
551.99	872.11
552.11	807.78
552.24	839.78
552.37	813.89
552.49	779.44
552.62	792.00
552.75	834.33
552.87	787.00
553.00	784.22
553.12	818.44
553.25	788.33
553.38	833.67
553.50	857.56
553.63	801.22
553.76	747.11
553.88	800.78
554.01	795.44
554.14	799.00
554.26	837.33
554.39	880.22
554.52	809.56
554.64	808.78
554.77	784.56
554.89	834.89
555.02	850.33
555.15	819.22
555.27	807.67
555.40	808.22
555.53	856.89
555.65	798.44
555.78	773.00
555.91	835.78
556.03	877.89
556.16	776.78
556.29	805.00
556.41	867.33
556.54	869.44
556.66	807.89
556.79	795.11
556.92	809.44
557.04	820.78
557.17	784.33
557.30	792.89
557.42	793.22
557.55	799.33
557.67	820.11
557.80	799.00
557.93	807.67
558.05	811.11
558.18	773.78
558.31	811.44
558.43	845.00
558.56	824.78
558.68	807.11
558.81	779.44
558.94	798.78
559.06	909.44
559.19	786.44
559.32	789.56
559.44	767.22
559.57	799.11
559.69	773.89
559.82	776.22
559.95	785.44
560.07	791.56
560.20	731.00
560.33	804.00
560.45	808.67
560.58	752.22
560.70	801.67
560.83	763.00
560.96	786.33
561.08	792.56
561.21	826.22
561.33	765.89
561.46	758.89
561.59	836.00
561.71	793.78
561.84	813.44
561.97	764.78
562.09	834.89
562.22	781.00
562.34	770.67
562.47	830.11
562.60	818.67
562.72	796.78
562.85	802.22
562.97	794.00
563.10	793.22
563.23	772.44
563.35	770.44
563.48	815.00
563.60	798.56
563.73	825.44
563.86	756.33
563.98	772.56
564.11	795.22
564.23	795.11
564.36	857.44
564.49	798.56
564.61	850.11
564.74	804.11
564.86	777.44
564.99	844.11
565.12	830.33
565.24	846.11
565.37	838.78
565.49	846.44
565.62	865.67
565.75	835.33
565.87	771.89
566.00	932.56
566.12	853.00
566.25	810.67
566.38	839.56
566.50	808.56
566.63	836.67
566.75	792.11
566.88	774.11
567.01	763.22
567.13	784.56
567.26	792.44
567.38	776.22
567.51	845.56
567.64	779.56
567.76	825.78
567.89	816.11
568.01	771.44
568.14	763.33
568.26	802.56
568.39	809.22
568.52	805.44
568.64	836.78
568.77	794.33
568.89	780.11
569.02	782.44
569.15	796.33
569.27	786.33
569.40	818.33
569.52	831.22
569.65	781.56
569.77	789.11
569.90	765.00
570.03	748.78
570.15	860.11
570.28	799.78
570.40	798.00
570.53	787.11
570.66	854.56
570.78	836.56
570.91	809.78
571.03	767.22
571.16	804.44
571.28	759.00
571.41	741.00
571.54	745.00
571.66	738.11
571.79	767.67
571.91	774.44
572.04	753.33
572.16	799.78
572.29	825.33
572.42	775.78
572.54	808.22
572.67	768.67
572.79	813.11
572.92	791.67
573.04	824.67
573.17	846.00
573.29	803.00
573.42	779.89
573.55	820.44
573.67	818.22
573.80	794.78
573.92	767.44
574.05	804.44
574.17	847.22
574.30	797.11
574.43	788.78
574.55	777.33
574.68	804.00
574.80	783.44
574.93	785.78
575.05	764.78
575.18	781.89
575.30	784.44
575.43	831.89
575.56	846.33
575.68	825.67
575.81	784.89
575.93	764.22
576.06	816.22
576.18	829.89
576.31	788.78
576.43	783.67
576.56	890.67
576.69	851.89
576.81	813.44
576.94	783.67
577.06	796.33
577.19	830.89
577.31	806.67
577.44	815.67
577.56	843.56
577.69	809.67
577.82	820.78
577.94	775.44
578.07	744.44
578.19	817.22
578.32	834.33
578.44	777.78
578.57	781.89
578.69	838.00
578.82	806.22
578.94	827.89
579.07	855.00
579.19	831.67
579.32	816.11
579.45	813.22
579.57	796.67
579.70	771.44
579.82	812.67
579.95	788.00
580.07	864.11
580.20	794.89
580.32	805.89
580.45	830.33
580.57	830.22
580.70	833.67
580.82	822.00
580.95	830.33
581.08	764.33
581.20	841.11
581.33	789.33
581.45	818.11
581.58	810.67
581.70	811.78
581.83	726.56
581.95	811.67
582.08	820.56
582.20	787.67
582.33	804.44
582.45	779.67
582.58	789.00
582.70	813.33
582.83	778.00
582.95	796.56
583.08	835.78
583.21	849.33
583.33	806.89
583.46	781.78
583.58	758.78
583.71	824.78
583.83	816.44
583.96	812.22
584.08	827.89
584.21	827.33
584.33	818.78
584.46	795.56
584.58	762.33
584.71	827.67
584.83	826.89
584.96	805.67
585.08	783.22
585.21	895.78
585.33	865.33
585.46	835.44
585.58	840.67
585.71	782.89
585.83	803.67
585.96	845.78
586.08	824.78
586.21	822.22
586.33	846.11
586.46	765.33
586.59	828.56
586.71	775.44
586.84	830.33
586.96	815.00
587.09	750.56
587.21	785.56
587.34	836.44
587.46	794.00
587.59	760.78
587.71	796.67
587.84	784.22
587.96	751.78
588.09	760.00
588.21	814.11
588.34	790.44
588.46	817.89
588.59	781.78
588.71	817.00
588.84	820.56
588.96	802.56
589.09	891.22
589.21	800.00
589.34	776.11
589.46	798.67
589.59	810.44
589.71	855.78
589.84	765.56
589.96	780.56
590.09	801.22
590.21	833.67
590.34	816.44
590.46	811.33
590.59	784.00
590.71	787.33
590.84	841.11
590.96	774.11
591.09	818.00
591.21	809.56
591.34	783.89
591.46	790.89
591.59	849.78
591.71	829.89
591.83	798.00
591.96	749.22
592.08	780.67
592.21	832.44
592.33	809.11
592.46	787.78
592.58	814.44
592.71	838.67
592.83	885.78
592.96	835.00
593.08	854.00
593.21	767.33
593.33	761.89
593.46	789.00
593.58	791.67
593.71	842.67
593.83	853.44
593.96	775.33
594.08	911.33
594.21	799.22
594.33	791.00
594.46	772.44
594.58	754.00
594.71	734.78
594.83	810.11
594.96	800.78
595.08	952.00
595.20	833.56
595.33	818.44
595.45	770.67
595.58	884.22
595.70	820.00
595.83	793.11
595.95	804.67
596.08	806.56
596.20	761.33
596.33	755.44
596.45	791.11
596.58	771.67
596.70	762.78
596.83	791.44
596.95	786.78
597.08	805.89
597.20	762.56
597.32	778.22
597.45	813.78
597.57	790.78
597.70	828.00
597.82	782.33
597.95	808.00
598.07	806.00
598.20	811.78
598.32	804.11
598.45	787.78
598.57	842.33
598.70	856.00
598.82	786.67
598.94	790.56
599.07	843.11
599.19	801.11
599.32	778.22
599.44	716.78
599.57	835.67
599.69	815.00
599.82	785.22
599.94	769.22
600.07	839.44
600.19	815.89
600.31	776.11
600.44	833.56
600.56	905.11
600.69	886.00
600.81	783.44
600.94	789.67
601.06	803.00
601.19	823.67
601.31	846.44
601.44	753.22
601.56	858.00
601.68	834.33
601.81	815.44
601.93	808.22
602.06	827.11
602.18	768.11
602.31	795.00
602.43	856.00
602.56	834.56
602.68	801.33
602.80	798.33
602.93	812.89
603.05	776.89
603.18	810.56
603.30	767.67
603.43	770.56
603.55	797.67
603.68	819.11
603.80	816.89
603.92	802.11
604.05	780.33
604.17	786.11
604.30	764.67
604.42	786.89
604.55	792.22
604.67	832.33
604.79	776.89
604.92	790.67
605.04	784.11
605.17	785.56
605.29	783.11
605.42	773.56
605.54	863.67
605.66	814.78
605.79	821.89
605.91	793.11
606.04	795.78
606.16	778.56
606.29	806.00
606.41	767.11
606.53	791.11
606.66	757.44
606.78	789.89
606.91	782.89
607.03	782.56
607.16	775.11
607.28	761.67
607.40	808.33
607.53	823.44
607.65	772.44
607.78	771.67
607.90	799.78
608.03	899.11
608.15	813.44
608.27	824.67
608.40	761.67
608.52	811.56
608.65	799.33
608.77	831.67
608.89	806.33
609.02	875.44
609.14	873.78
609.27	828.44
609.39	841.44
609.52	783.22
609.64	737.33
609.76	775.33
609.89	796.89
610.01	851.67
610.14	832.78
610.26	796.56
610.38	772.67
610.51	835.78
610.63	785.89
610.76	764.00
610.88	824.44
611.01	864.11
611.13	894.89
611.25	835.44
611.38	771.44
611.50	794.33
611.63	821.56
611.75	812.33
611.87	816.00
612.00	781.44
612.12	839.22
612.25	795.67
612.37	770.00
612.49	864.22
612.62	832.78
612.74	866.56
612.87	804.44
612.99	800.67
613.11	748.11
613.24	790.44
613.36	791.89
613.49	806.11
613.61	800.78
613.73	784.67
613.86	834.56
613.98	767.44
614.11	832.11
614.23	836.67
614.35	843.56
614.48	838.22
614.60	814.11
614.72	793.89
614.85	821.00
614.97	812.00
615.10	803.11
615.22	794.44
615.34	809.22
615.47	849.78
615.59	775.11
615.72	796.22
615.84	816.78
615.96	779.78
616.09	881.44
616.21	794.44
616.34	787.33
616.46	797.56
616.58	826.56
616.71	821.00
616.83	838.67
616.95	833.89
617.08	828.78
617.20	804.11
617.33	765.22
617.45	788.44
617.57	818.00
617.70	812.56
617.82	781.22
617.95	804.00
618.07	867.78
618.19	822.33
618.32	812.22
618.44	780.89
618.56	762.67
618.69	742.56
618.81	752.11
618.94	830.78
619.06	800.44
619.18	792.78
619.31	754.11
619.43	764.00
619.55	813.78
619.68	819.78
619.80	769.22
619.92	813.89
620.05	922.89
620.17	859.44
620.30	802.67
620.42	818.22
620.54	841.56
620.67	784.22
620.79	807.89
620.91	818.33
621.04	862.89
621.16	789.00
621.29	777.33
621.41	749.33
621.53	788.78
621.66	794.00
621.78	782.00
621.90	833.44
622.03	894.00
622.15	809.78
622.27	799.67
622.40	810.11
622.52	781.44
622.64	784.78
622.77	758.56
622.89	807.78
623.02	838.11
623.14	816.56
623.26	823.44
623.39	827.89
623.51	857.11
623.63	791.33
623.76	770.44
623.88	854.11
624.00	802.89
624.13	769.11
624.25	771.33
624.37	766.11
624.50	845.44
624.62	825.44
624.75	762.00
624.87	766.78
624.99	819.44
625.12	780.56
625.24	797.11
625.36	878.56
625.49	827.89
625.61	819.78
625.73	814.67
625.86	843.44
625.98	798.78
626.10	780.00
626.23	760.11
626.35	812.67
626.47	788.11
626.60	770.44
626.72	777.44
626.84	779.89
626.97	814.44
627.09	793.44
627.21	794.11
627.34	897.89
627.46	888.00
627.58	799.89
627.71	813.67
627.83	833.44
627.95	769.56
628.08	804.67
628.20	833.78
628.32	747.22
628.45	723.44
628.57	739.22
628.69	767.11
628.82	816.33
628.94	853.33
629.06	802.44
629.19	776.67
629.31	830.00
629.43	767.67
629.56	814.11
629.68	803.56
629.80	841.89
629.93	769.11
630.05	771.11
630.17	760.33
630.30	782.22
630.42	773.56
630.54	824.56
630.67	798.56
630.79	779.56
630.91	913.11
631.04	816.33
631.16	805.22
631.28	811.56
631.41	773.78
631.53	759.22
631.65	805.78
631.78	821.67
631.90	801.11
632.02	798.11
632.14	723.22
632.27	858.00
632.39	800.22
632.51	784.00
632.64	840.33
632.76	800.11
632.88	781.89
633.01	804.00
633.13	795.11
633.25	804.22
633.38	900.78
633.50	751.00
633.62	751.22
633.75	740.44
633.87	734.44
633.99	809.78
634.11	750.78
634.24	782.44
634.36	787.78
634.48	788.56
634.61	787.00
634.73	822.56
634.85	780.33
634.98	771.44
635.10	783.11
635.22	792.22
635.35	901.89
635.47	811.11
635.59	788.22
635.71	820.56
635.84	843.89
635.96	784.78
636.08	830.78
636.21	775.11
636.33	806.44
636.45	796.67
636.58	771.11
636.70	743.33
636.82	812.78
636.94	772.78
637.07	745.78
637.19	825.44
637.31	824.00
637.44	821.00
637.56	753.89
637.68	808.00
637.81	807.89
637.93	807.00
638.05	758.78
638.17	842.33
638.30	903.89
638.42	793.78
638.54	769.22
638.67	784.89
638.79	793.11
638.91	770.44
639.03	789.44
639.16	778.78
639.28	791.33
639.40	798.89
639.53	769.11
639.65	827.33
639.77	795.56
639.89	802.11
640.02	793.56
640.14	805.78
640.26	761.22
640.39	817.56
640.51	771.89
640.63	816.67
640.75	840.78
640.88	792.00
641.00	777.56
641.12	769.22
641.24	866.22
641.37	782.56
641.49	761.22
641.61	892.22
641.74	769.33
641.86	811.00
641.98	756.56
642.10	808.11
642.23	814.89
642.35	779.89
642.47	810.56
642.60	809.44
642.72	826.22
642.84	734.67
642.96	754.89
643.09	758.67
643.21	753.56
643.33	761.11
643.45	770.11
643.58	833.22
643.70	867.44
643.82	778.44
643.94	787.67
644.07	800.00
644.19	807.22
644.31	801.78
644.44	796.56
644.56	783.00
644.68	758.44
644.80	754.00
644.93	757.00
645.05	762.00
645.17	803.44
645.29	801.44
645.42	807.00
645.54	793.78
645.66	813.56
645.78	787.56
645.91	771.89
646.03	818.67
646.15	865.00
646.27	779.11
646.40	795.56
646.52	824.11
646.64	840.11
646.76	787.78
646.89	739.78
647.01	821.56
647.13	815.67
647.25	826.22
647.38	781.33
647.50	757.78
647.62	824.56
647.74	750.78
647.87	758.56
647.99	794.78
648.11	820.78
648.23	792.44
648.36	737.56
648.48	851.44
648.60	799.78
648.72	770.33
648.85	759.11
648.97	835.56
649.09	812.78
649.21	775.33
649.34	803.00
649.46	813.56
649.58	805.44
649.70	815.44
649.83	771.00
649.95	840.78
650.07	830.22
650.19	827.44
650.32	797.00
650.44	843.44
650.56	809.11
650.68	775.22
650.81	776.56
650.93	772.56
651.05	856.56
651.17	772.44
651.29	814.22
651.42	783.67
651.54	821.67
651.66	762.56
651.78	761.11
651.91	812.89
652.03	899.33
652.15	820.56
652.27	772.89
652.40	801.22
652.52	786.33
652.64	808.00
652.76	772.22
652.88	882.56
653.01	796.00
653.13	762.22
653.25	731.67
653.37	825.44
653.50	832.67
653.62	820.00
653.74	748.67
653.86	828.56
653.98	823.22
654.11	764.11
654.23	782.67
654.35	778.44
654.47	900.89
654.60	780.44
654.72	781.78
654.84	757.33
654.96	830.89
655.08	779.44
655.21	805.44
655.33	786.67
655.45	834.56
655.57	797.00
655.70	792.67
655.82	831.00
655.94	860.33
656.06	821.33
656.18	759.56
656.31	845.33
656.43	812.78
656.55	769.00
656.67	786.00
656.79	789.33
656.92	839.00
657.04	815.78
657.16	781.11
657.28	906.11
657.40	810.11
657.53	820.67
657.65	782.33
657.77	844.00
657.89	845.11
658.01	787.89
658.14	762.78
658.26	819.89
658.38	784.22
658.50	756.11
658.62	756.44
658.75	915.67
658.87	833.78
658.99	821.56
659.11	767.22
659.23	837.33
659.36	886.00
659.48	844.00
659.60	819.44
659.72	808.78
659.84	797.56
659.97	820.89
660.09	832.22
660.21	914.89
660.33	846.78
660.45	745.67
660.58	721.22
660.70	770.33
660.82	787.44
660.94	751.00
661.06	790.33
661.19	850.56
661.31	837.11
661.43	798.44
661.55	787.44
661.67	833.11
661.80	866.67
661.92	800.67
662.04	804.67
662.16	800.89
662.28	856.67
662.40	799.33
662.53	801.33
662.65	820.00
662.77	769.56
662.89	808.78
663.01	772.89
663.14	792.67
663.26	819.78
663.38	793.67
663.50	764.67
663.62	777.56
663.74	798.44
663.87	773.33
663.99	801.89
664.11	815.33
664.23	902.56
664.35	789.56
664.48	772.67
664.60	785.56
664.72	785.22
664.84	752.33
664.96	786.00
665.08	839.11
665.21	808.44
665.33	831.89
665.45	745.78
665.57	791.56
665.69	868.00
665.81	792.00
665.94	762.44
666.06	767.22
666.18	807.22
666.30	784.44
666.42	769.89
666.54	800.44
666.67	819.00
666.79	773.33
666.91	826.33
667.03	780.56
667.15	751.56
667.27	785.56
667.40	762.00
667.52	780.56
667.64	828.78
667.76	774.56
667.88	751.33
668.00	824.00
668.13	831.78
668.25	766.00
668.37	768.11
668.49	779.00
668.61	837.89
668.73	792.67
668.85	805.33
668.98	812.00
669.10	807.56
669.22	780.00
669.34	793.00
669.46	828.67
669.58	784.33
669.71	800.00
669.83	797.33
669.95	790.67
670.07	800.22
670.19	774.56
670.31	783.89
670.43	781.22
670.56	814.11
670.68	846.89
670.80	814.67
670.92	808.33
671.04	848.22
671.16	779.56
671.28	772.78
671.41	778.67
671.53	824.44
671.65	780.33
671.77	790.22
671.89	936.67
672.01	883.44
672.13	837.67
672.26	764.78
672.38	798.11
672.50	764.44
672.62	791.11
672.74	809.44
672.86	793.33
672.98	797.78
673.11	797.78
673.23	803.89
673.35	845.78
673.47	795.00
673.59	797.56
673.71	757.67
673.83	824.67
673.96	909.11
674.08	800.00
674.20	755.89
674.32	788.56
674.44	798.44
674.56	821.89
674.68	812.56
674.80	823.89
674.93	793.56
675.05	786.11
675.17	802.33
675.29	829.56
675.41	834.33
675.53	793.33
675.65	786.44
675.77	794.33
675.90	844.00
676.02	774.00
676.14	765.00
676.26	859.33
676.38	885.89
676.50	805.56
676.62	818.33
676.74	764.33
676.87	778.56
676.99	805.44
677.11	838.11
677.23	814.11
677.35	828.67
677.47	751.33
677.59	771.22
677.71	818.89
677.83	826.11
677.96	805.11
678.08	797.11
678.20	795.56
678.32	768.22
678.44	789.67
678.56	789.00
678.68	926.78
678.80	838.89
678.93	790.33
679.05	806.44
679.17	798.89
679.29	848.33
679.41	796.56
679.53	771.78
679.65	775.44
679.77	805.56
679.89	789.00
680.01	826.33
680.14	827.67
680.26	739.56
680.38	787.11
680.50	826.89
680.62	875.22
680.74	823.00
680.86	789.78
680.98	801.33
681.10	821.89
681.22	906.22
681.35	789.33
681.47	788.33
681.59	767.11
681.71	870.22
681.83	798.56
681.95	773.44
682.07	857.56
682.19	820.22
682.31	780.56
682.43	754.89
682.56	827.00
682.68	758.33
682.80	756.33
682.92	814.11
683.04	803.67
683.16	790.33
683.28	769.00
683.40	827.22
683.52	800.11
683.64	816.89
683.76	759.89
683.89	774.89
684.01	791.67
684.13	854.44
684.25	805.00
684.37	804.78
684.49	837.44
684.61	790.56
684.73	798.33
684.85	789.78
684.97	764.44
685.09	855.11
685.21	768.89
685.34	797.44
685.46	920.67
685.58	820.22
685.70	811.78
685.82	842.56
685.94	772.44
686.06	770.33
686.18	770.89
686.30	786.67
686.42	759.22
686.54	823.56
686.66	767.56
686.79	866.56
686.91	810.67
687.03	899.33
687.15	829.67
687.27	796.11
687.39	796.11
687.51	869.33
687.63	812.67
687.75	852.89
687.87	821.67
687.99	871.22
688.11	765.44
688.23	816.44
688.35	845.89
688.48	827.89
688.60	764.56
688.72	785.56
688.84	811.78
688.96	827.89
689.08	799.11
689.20	790.78
689.32	920.22
689.44	812.67
689.56	758.56
689.68	771.89
689.80	791.00
689.92	771.11
690.04	780.89
690.16	829.33
690.28	814.22
690.41	817.44
690.53	776.67
690.65	840.33
690.77	853.89
690.89	843.67
691.01	798.89
691.13	778.11
691.25	762.67
691.37	791.67
691.49	742.56
691.61	746.33
691.73	872.33
691.85	802.00
691.97	791.78
692.09	770.00
692.21	841.11
692.33	861.78
692.45	816.22
692.57	777.33
692.70	804.56
692.82	822.33
692.94	739.22
693.06	769.44
693.18	803.78
693.30	780.89
693.42	773.56
693.54	812.67
693.66	821.33
693.78	815.11
693.90	780.89
694.02	801.33
694.14	823.89
694.26	782.11
694.38	803.78
694.50	813.56
694.62	817.78
694.74	759.33
694.86	763.78
694.98	801.67
695.10	811.78
695.22	844.67
695.34	786.33
695.46	777.78
695.58	782.56
695.71	808.11
695.83	775.44
695.95	779.67
696.07	856.67
696.19	767.44
696.31	782.44
696.43	761.78
696.55	869.22
696.67	806.89
696.79	775.67
696.91	798.00
697.03	781.33
697.15	876.89
697.27	804.33
697.39	769.44
697.51	828.11
697.63	771.33
697.75	774.67
697.87	799.56
697.99	752.22
698.11	723.00
698.23	760.33
698.35	772.56
698.47	784.33
698.59	814.22
698.71	786.00
698.83	834.56
698.95	766.33
699.07	805.78
699.19	778.33
699.31	796.44
699.43	765.89
699.55	815.56
699.67	783.56
699.79	782.67
699.91	777.78
700.03	802.89
700.15	803.56
700.27	760.56
700.39	792.56
700.51	756.56
700.63	789.00
700.75	783.44
700.87	811.67
700.99	780.78
701.11	817.89
701.24	796.44
701.36	830.78
701.48	834.00
701.60	823.44
701.72	766.44
701.84	857.11
701.96	811.44
702.08	794.22
702.20	868.89
702.32	829.44
702.44	818.00
702.56	790.22
702.68	794.22
702.80	807.33
702.92	886.78
703.04	862.22
703.16	805.78
703.28	804.44
703.40	790.78
703.52	816.22
703.64	818.11
703.76	812.67
703.88	788.67
704.00	769.00
704.12	792.89
704.24	844.11
704.36	806.11
704.48	807.00
704.60	758.56
704.72	790.56
704.84	786.78
704.96	816.33
705.07	802.56
705.19	766.78
705.31	786.00
705.43	829.56
705.55	782.22
705.67	816.22
705.79	802.11
705.91	735.67
706.03	794.22
706.15	802.11
706.27	781.89
706.39	780.11
706.51	779.11
706.63	777.22
706.75	822.44
706.87	808.00
706.99	858.33
707.11	800.00
707.23	779.78
707.35	818.78
707.47	804.00
707.59	828.67
707.71	835.44
707.83	790.22
707.95	832.00
708.07	786.56
708.19	911.78
708.31	815.56
708.43	766.22
708.55	815.89
708.67	850.78
708.79	808.67
708.91	834.00
709.03	813.56
709.15	849.33
709.27	772.67
709.39	812.78
709.51	790.33
709.63	816.56
709.75	822.67
709.87	754.56
709.99	832.22
710.11	775.33
710.23	772.11
710.35	760.11
710.47	897.56
710.58	850.44
710.70	845.67
710.82	851.89
710.94	801.00
711.06	801.00
711.18	810.33
711.30	780.44
711.42	831.67
711.54	796.33
711.66	827.00
711.78	774.44
711.90	830.56
712.02	868.67
712.14	772.00
712.26	753.67
712.38	842.78
712.50	860.33
712.62	790.44
712.74	782.89
712.86	780.22
712.98	841.33
713.10	772.33
713.22	757.00
713.34	809.22
713.45	778.11
713.57	813.89
713.69	771.00
713.81	783.67
713.93	811.00
714.05	791.56
714.17	753.78
714.29	859.00
714.41	850.78
714.53	790.67
714.65	820.00
714.77	806.67
714.89	763.56
715.01	853.89
715.13	770.67
715.25	809.56
715.37	768.11
715.49	752.89
715.61	817.33
715.72	818.11
715.84	845.78
715.96	793.89
716.08	788.00
716.20	862.67
716.32	840.44
716.44	794.22
716.56	797.56
716.68	807.44
716.80	882.44
716.92	856.22
717.04	814.22
717.16	827.00
717.28	799.89
717.40	788.56
717.52	806.78
717.63	774.44
717.75	798.56
717.87	798.78
717.99	815.33
718.11	788.22
718.23	862.78
718.35	825.22
718.47	806.67
718.59	753.11
718.71	795.33
718.83	781.33
718.95	825.22
719.07	764.00
719.19	790.78
719.30	790.56
719.42	804.67
719.54	793.78
719.66	809.89
719.78	809.22
719.90	742.89
720.02	795.22
720.14	814.22
720.26	835.56
720.38	820.67
720.50	784.56
720.62	735.11
720.74	800.89
720.85	801.00
720.97	858.11
721.09	892.89
721.21	787.33
721.33	863.44
721.45	809.56
721.57	819.00
721.69	773.78
721.81	752.11
721.93	857.44
722.05	812.78
722.16	772.22
722.28	747.78
722.40	779.67
722.52	852.00
722.64	863.22
722.76	766.56
722.88	815.78
723.00	821.89
723.12	782.22
723.24	808.78
723.36	743.78
723.47	837.78
723.59	811.00
723.71	793.00
723.83	825.33
723.95	786.67
724.07	796.89
724.19	816.78
724.31	872.89
724.43	774.56
724.55	737.78
724.66	768.33
724.78	931.33
724.90	773.22
725.02	769.67
725.14	782.89
725.26	800.78
725.38	741.56
725.50	801.22
725.62	807.11
725.74	796.00
725.85	789.00
725.97	806.22
726.09	863.00
726.21	1140.44
726.33	837.89
726.45	802.44
726.57	775.67
726.69	808.67
726.81	804.78
726.92	787.78
727.04	809.56
727.16	815.00
727.28	787.78
727.40	785.44
727.52	811.67
727.64	916.89
727.76	885.11
727.88	827.67
727.99	762.00
728.11	768.33
728.23	794.44
728.35	779.33
728.47	781.67
728.59	783.00
728.71	808.11
728.83	810.67
728.94	828.78
729.06	890.22
729.18	859.44
729.30	823.89
729.42	813.44
729.54	880.00
729.66	887.67
729.78	802.22
729.90	815.89
730.01	783.00
730.13	727.00
730.25	792.00
730.37	794.00
730.49	829.56
730.61	820.33
730.73	813.67
730.84	828.22
730.96	823.89
731.08	816.00
731.20	811.33
731.32	808.78
731.44	951.33
731.56	795.67
731.68	763.67
731.79	817.56
731.91	775.33
732.03	777.00
732.15	795.67
732.27	774.22
732.39	784.89
732.51	831.33
732.62	772.33
732.74	791.33
732.86	852.11
732.98	817.89
733.10	799.11
733.22	815.78
733.34	828.89
733.45	749.33
733.57	797.78
733.69	758.78
733.81	787.78
733.93	806.78
734.05	736.22
734.17	795.67
734.28	801.22
734.40	801.00
734.52	784.89
734.64	788.11
734.76	873.89
734.88	809.78
735.00	762.00
735.11	796.00
735.23	844.56
735.35	790.11
735.47	749.00
735.59	836.00
735.71	797.67
735.83	810.33
735.94	819.33
736.06	807.89
736.18	854.78
736.30	841.67
736.42	824.22
736.54	813.67
736.65	838.00
736.77	952.67
736.89	848.11
737.01	813.00
737.13	905.67
737.25	740.78
737.36	772.44
737.48	790.67
737.60	805.11
737.72	781.33
737.84	793.56
737.96	852.11
738.08	796.56
738.19	886.00
738.31	791.22
738.43	810.89
738.55	798.44
738.67	802.89
738.79	775.78
738.90	802.67
739.02	816.33
739.14	786.33
739.26	798.11
739.38	799.44
739.50	822.44
739.61	800.44
739.73	801.67
739.85	805.22
739.97	815.89
740.09	858.89
740.20	757.44
740.32	809.44
740.44	825.00
740.56	771.56
740.68	796.89
740.80	809.33
740.91	803.56
741.03	842.44
741.15	830.00
741.27	798.44
741.39	844.44
741.51	814.44
741.62	843.11
741.74	807.33
741.86	797.67
741.98	781.22
742.10	811.11
742.21	816.00
742.33	807.44
742.45	773.56
742.57	858.89
742.69	803.44
742.80	840.56
742.92	799.00
743.04	791.00
743.16	790.56
743.28	853.22
743.40	774.89
743.51	777.67
743.63	770.33
743.75	804.67
743.87	799.00
743.99	819.00
744.10	796.44
744.22	802.67
744.34	781.56
744.46	827.89
744.58	817.11
744.69	745.22
744.81	803.78
744.93	756.89
745.05	768.89
745.17	881.11
745.28	875.67
745.40	831.11
745.52	809.89
745.64	810.44
745.76	845.78
745.87	792.00
745.99	779.67
746.11	811.11
746.23	776.11
746.35	800.89
746.46	781.22
746.58	903.67
746.70	819.11
746.82	815.67
746.94	795.33
747.05	777.44
747.17	756.44
747.29	754.67
747.41	796.11
747.53	921.89
747.64	795.78
747.76	853.33
747.88	852.56
748.00	853.44
748.12	809.56
748.23	801.78
748.35	818.33
748.47	845.56
748.59	844.22
748.70	787.89
748.82	775.22
748.94	774.44
749.06	792.22
749.18	795.22
749.29	774.22
749.41	821.11
749.53	804.33
749.65	792.89
749.76	837.00
749.88	797.78
750.00	819.22
750.12	841.22
750.24	821.22
750.35	802.11
750.47	769.44
750.59	829.67
750.71	803.56
750.82	838.11
750.94	778.56
751.06	799.56
751.18	787.44
751.30	836.22
751.41	834.11
751.53	836.56
751.65	780.78
751.77	785.00
751.88	820.56
752.00	852.44
752.12	764.78
752.24	854.89
752.35	830.22
752.47	838.44
752.59	847.11
752.71	879.89
752.83	787.56
752.94	867.67
753.06	786.56
753.18	809.67
753.30	783.56
753.41	740.44
753.53	788.22
753.65	787.78
753.77	847.00
753.88	781.22
754.00	815.22
754.12	808.44
754.24	867.89
754.35	789.00
754.47	751.22
754.59	836.67
754.71	831.11
754.82	804.89
754.94	798.11
755.06	856.56
755.18	825.67
755.29	817.89
755.41	793.00
755.53	828.56
755.65	776.44
755.76	809.56
755.88	807.11
756.00	870.89
756.12	791.33
756.23	716.00
756.35	776.00
756.47	846.11
756.59	790.22
756.70	780.56
756.82	785.67
756.94	792.00
757.06	821.22
757.17	817.67
757.29	802.67
757.41	756.89
757.53	824.89
757.64	804.67
757.76	811.56
757.88	821.67
758.00	827.78
758.11	791.11
758.23	766.00
758.35	826.78
758.47	770.67
758.58	823.67
758.70	766.56
758.82	785.33
758.94	768.00
759.05	809.33
759.17	758.56
759.29	794.78
759.40	863.89
759.52	792.67
759.64	795.89
759.76	816.78
759.87	824.33
759.99	828.89
760.11	788.00
760.23	817.00
760.34	845.22
760.46	819.00
760.58	795.33
760.70	809.44
760.81	854.22
760.93	813.00
761.05	832.00
761.16	820.89
761.28	793.11
761.40	788.33
761.52	776.44
761.63	852.44
761.75	833.67
761.87	790.56
761.98	762.56
762.10	832.44
762.22	807.78
762.34	841.56
762.45	791.89
762.57	834.22
762.69	922.22
762.81	802.78
762.92	824.67
763.04	757.11
763.16	828.67
763.27	835.89
763.39	795.78
763.51	835.67
763.63	832.33
763.74	789.78
763.86	755.00
763.98	771.89
764.09	795.89
764.21	819.00
764.33	765.89
764.44	784.22
764.56	813.56
764.68	786.00
764.80	810.67
764.91	754.22
765.03	861.67
765.15	808.33
765.26	803.78
765.38	776.56
765.50	836.33
765.62	806.00
765.73	804.56
765.85	814.78
765.97	760.78
766.08	805.22
766.20	823.56
766.32	821.33
766.43	842.44
766.55	828.00
766.67	794.00
766.79	802.78
766.90	769.56
767.02	743.89
767.14	761.11
767.25	769.44
767.37	892.00
767.49	826.67
767.60	794.22
767.72	857.56
767.84	832.89
767.95	790.00
768.07	770.78
768.19	823.00
768.31	830.56
768.42	807.22
768.54	799.78
768.66	802.00
768.77	839.33
768.89	807.67
769.01	780.56
769.12	821.78
769.24	816.11
769.36	774.67
769.47	771.11
769.59	768.56
769.71	818.44
769.82	793.11
769.94	786.22
770.06	762.00
770.17	843.67
770.29	812.22
770.41	839.44
770.53	827.22
770.64	771.11
770.76	813.00
770.88	828.89
770.99	838.33
771.11	777.89
771.23	819.33
771.34	807.89
771.46	896.44
771.58	866.89
771.69	841.00
771.81	811.67
771.93	845.56
772.04	780.44
772.16	834.22
772.28	808.44
772.39	855.67
772.51	809.00
772.63	830.00
772.74	798.22
772.86	798.78
772.98	912.00
773.09	779.67
773.21	789.22
773.33	825.11
773.44	829.89
773.56	801.89
773.68	810.89
773.79	857.11
773.91	795.67
774.03	814.33
774.14	799.89
774.26	856.33
774.38	774.78
774.49	765.89
774.61	799.78
774.73	811.33
774.84	794.78
774.96	780.89
775.08	810.67
775.19	831.33
775.31	859.00
775.43	813.22
775.54	787.44
775.66	756.67
775.77	847.56
775.89	774.56
776.01	840.11
776.12	846.56
776.24	820.33
776.36	764.22
776.47	780.89
776.59	818.56
776.71	858.00
776.82	750.22
776.94	766.89
777.06	794.22
777.17	873.67
777.29	767.78
777.41	783.78
777.52	826.67
777.64	819.89
777.75	837.56
777.87	749.00
777.99	789.22
778.10	840.78
778.22	792.78
778.34	815.44
778.45	805.33
778.57	851.00
778.69	846.56
778.80	820.00
778.92	904.33
779.04	823.22
779.15	810.33
779.27	849.11
779.38	834.33
779.50	863.22
779.62	756.89
779.73	803.67
779.85	755.67
779.97	912.67
780.08	811.11
780.20	807.67
780.31	838.00
780.43	841.44
780.55	789.89
780.66	817.33
780.78	834.67
780.90	906.56
781.01	788.11
781.13	803.89
781.25	797.67
781.36	857.33
781.48	782.78
781.59	803.78
781.71	833.78
781.83	829.78
781.94	778.56
782.06	788.22
782.18	850.67
782.29	810.56
782.41	766.56
782.52	846.11
782.64	861.44
782.76	827.33
782.87	827.44
782.99	807.00
783.10	934.89
783.22	950.67
783.34	808.67
783.45	816.11
783.57	810.33
783.69	786.89
783.80	819.33
783.92	840.78
784.03	806.11
784.15	786.11
784.27	806.22
784.38	789.33
784.50	815.56
784.61	811.44
784.73	786.78
784.85	798.44
784.96	791.22
785.08	862.00
785.19	853.56
785.31	801.44
785.43	775.00
785.54	776.33
785.66	837.44
785.77	816.78
785.89	830.33
786.01	765.00
786.12	804.67
786.24	820.67
786.35	882.67
786.47	818.56
786.59	784.78
786.70	774.78
786.82	821.78
786.93	822.67
787.05	807.67
787.17	832.78
787.28	806.00
787.40	819.67
787.51	829.56
787.63	831.67
787.75	774.67
787.86	817.44
787.98	839.00
788.09	806.33
788.21	823.67
788.33	855.00
788.44	834.00
788.56	788.44
788.67	839.67
788.79	794.11
788.91	817.33
789.02	789.00
789.14	802.78
789.25	899.78
789.37	843.89
789.48	790.11
789.60	823.56
789.72	784.67
789.83	835.11
789.95	816.22
790.06	764.78
790.18	781.67
790.30	836.67
790.41	820.89
790.53	788.89
790.64	769.22
790.76	773.11
790.87	799.11
790.99	815.22
791.11	813.78
791.22	794.22
791.34	808.89
791.45	837.89
791.57	837.11
791.68	798.78
791.80	788.33
791.92	839.78
792.03	788.22
792.15	765.67
792.26	792.56
792.38	764.89
792.49	830.44
792.61	805.89
792.73	817.33
792.84	804.56
792.96	898.00
793.07	803.44
793.19	1565.11
793.30	898.22
793.42	845.78
793.54	749.44
793.65	766.33
793.77	938.33
793.88	801.33
794.00	764.89
794.11	809.22
794.23	755.33
794.34	820.89
794.46	751.89
794.58	760.11
794.69	891.00
794.81	888.22
794.92	774.00
795.04	774.89
795.15	884.00
795.27	843.22
795.39	811.56
795.50	778.11
795.62	782.56
795.73	795.33
795.85	781.44
795.96	822.44
796.08	864.33
796.19	789.44
796.31	790.67
796.42	767.89
796.54	783.44
796.66	838.67
796.77	770.11
796.89	754.67
797.00	846.78
797.12	738.44
797.23	792.67
797.35	818.89
797.46	834.44
797.58	864.67
797.69	828.00
797.81	793.33
797.93	791.22
798.04	782.78
798.16	781.22
798.27	820.11
798.39	774.56
798.50	761.00
798.62	762.78
798.73	767.33
798.85	880.67
798.96	812.78
799.08	835.56
799.19	843.56
799.31	815.00
799.43	809.11
799.54	795.78
799.66	819.78
799.77	837.33
799.89	780.22
800.00	743.44
800.12	793.00
800.23	848.89
800.35	886.89
800.46	750.22
800.58	737.89
800.69	798.33
800.81	791.78
800.92	760.67
801.04	802.22
801.16	742.78
801.27	756.67
801.39	770.11
801.50	788.78
801.62	794.00
801.73	846.78
801.85	841.89
801.96	769.67
802.08	853.56
802.19	847.56
802.31	785.78
802.42	805.44
802.54	883.67
802.65	852.67
802.77	775.11
802.88	839.78
803.00	759.22
803.11	902.22
803.23	802.44
803.34	797.89
803.46	827.33
803.57	766.56
803.69	842.33
803.80	771.11
803.92	854.22
804.03	794.22
804.15	811.67
804.26	833.44
804.38	842.44
804.50	780.00
804.61	816.78
804.73	807.44
804.84	811.89
804.96	741.33
805.07	800.00
805.19	776.22
805.30	823.89
805.42	847.11
805.53	806.67
805.65	783.56
805.76	756.67
805.88	787.89
805.99	820.78
806.11	828.89
806.22	778.78
806.34	795.00
806.45	803.22
806.57	791.11
806.68	836.56
806.80	741.00
806.91	774.11
807.03	765.11
807.14	745.33
807.26	750.22
807.37	751.44
807.49	818.11
807.60	781.33
807.72	865.22
807.83	878.56
807.95	816.67
808.06	820.11
808.17	812.00
808.29	841.44
808.40	771.56
808.52	805.44
808.63	814.78
808.75	818.00
808.86	804.78
808.98	822.56
809.09	778.89
809.21	817.89
809.32	783.78
809.44	828.33
809.55	767.22
809.67	811.89
809.78	775.56
809.90	831.11
810.01	863.78
810.13	786.00
810.24	836.78
810.36	753.89
810.47	773.44
810.59	801.67
810.70	829.56
810.82	844.44
810.93	766.22
811.05	772.00
811.16	785.11
811.27	768.11
811.39	805.78
811.50	845.22
811.62	761.78
811.73	741.56
811.85	823.22
811.96	810.00
812.08	828.11
812.19	809.00
812.31	826.22
812.42	794.11
812.54	782.44
812.65	844.67
812.77	850.00
812.88	842.33
813.00	836.44
813.11	830.33
813.22	775.33
813.34	783.56
813.45	809.00
813.57	890.44
813.68	892.44
813.80	810.44
813.91	776.89
814.03	798.11
814.14	891.00
814.26	791.67
814.37	810.56
814.49	801.56
814.60	787.56
814.71	789.78
814.83	803.11
814.94	759.33
815.06	791.67
815.17	810.44
815.29	802.33
815.40	766.78
815.52	882.22
815.63	796.22
815.75	781.33
815.86	819.44
815.97	769.33
816.09	812.44
816.20	825.00
816.32	832.22
816.43	762.56
816.55	817.33
816.66	793.44
816.78	888.89
816.89	810.89
817.00	809.33
817.12	784.78
817.23	772.44
817.35	843.00
817.46	811.44
817.58	776.78
817.69	919.56
817.81	815.11
817.92	839.89
818.03	815.89
818.15	814.89
818.26	776.56
818.38	775.89
818.49	802.67
818.61	819.56
818.72	766.78
818.83	1644.44
818.95	916.56
819.06	791.00
819.18	799.11
819.29	819.22
819.41	814.44
819.52	820.33
819.64	815.44
819.75	781.89
819.86	761.33
819.98	792.00
820.09	823.44
820.21	808.78
820.32	777.00
820.44	828.67
820.55	875.56
820.66	792.78
820.78	839.33
820.89	805.00
821.01	830.78
821.12	818.22
821.23	826.00
821.35	798.56
821.46	856.33
821.58	815.67
821.69	797.33
821.81	783.67
821.92	864.89
822.03	804.00
822.15	825.00
822.26	776.22
822.38	781.11
822.49	828.67
822.61	821.11
822.72	814.56
822.83	857.00
822.95	805.33
823.06	815.78
823.18	861.67
823.29	881.89
823.40	837.44
823.52	803.00
823.63	769.44
823.75	893.89
823.86	809.56
823.97	768.56
824.09	847.89
824.20	777.56
824.32	832.44
824.43	806.11
824.55	848.89
824.66	895.89
824.77	807.22
824.89	825.11
825.00	874.00
825.12	816.89
825.23	835.22
825.34	770.33
825.46	778.11
825.57	847.89
825.69	797.00
825.80	740.33
825.91	784.89
826.03	758.22
826.14	833.11
826.26	777.33
826.37	810.89
826.48	796.67
826.60	815.56
826.71	786.33
826.83	819.00
826.94	821.56
827.05	857.78
827.17	845.33
827.28	805.89
827.39	795.44
827.51	776.56
827.62	804.78
827.74	810.89
827.85	794.33
827.96	782.44
828.08	801.56
828.19	899.33
828.31	801.89
828.42	760.44
828.53	826.11
828.65	855.78
828.76	863.22
828.87	828.89
828.99	776.89
