Wavelength (nm)	Intensity
377.35	810.33
377.48	595.33
377.62	611.22
377.75	612.44
377.88	814.22
378.02	796.56
378.15	801.00
378.28	773.56
378.41	843.67
378.55	809.44
378.68	802.44
378.81	782.56
378.95	807.44
379.08	790.33
379.21	764.44
379.35	822.78
379.48	823.67
379.61	880.44
379.74	800.67
379.88	785.00
380.01	854.00
380.14	911.22
380.28	843.00
380.41	767.78
380.54	816.33
380.68	823.78
380.81	747.56
380.94	831.11
381.07	872.78
381.21	868.56
381.34	800.00
381.47	746.56
381.61	929.78
381.74	810.89
381.87	771.44
382.00	826.56
382.14	886.78
382.27	840.44
382.40	777.56
382.54	863.56
382.67	864.56
382.80	773.44
382.93	777.56
383.07	804.67
383.20	804.78
383.33	838.33
383.47	785.67
383.60	762.22
383.73	943.67
383.86	834.67
384.00	799.33
384.13	791.44
384.26	841.22
384.40	854.00
384.53	810.11
384.66	859.33
384.79	821.33
384.93	787.67
385.06	789.89
385.19	815.67
385.33	923.11
385.46	837.22
385.59	785.11
385.72	818.00
385.86	761.78
385.99	791.33
386.12	798.11
386.25	772.78
386.39	849.56
386.52	864.00
386.65	802.89
386.79	803.78
386.92	792.44
387.05	880.78
387.18	759.56
387.32	775.11
387.45	845.11
387.58	813.56
387.71	789.00
387.85	785.22
387.98	814.78
388.11	834.56
388.25	816.11
388.38	809.22
388.51	834.11
388.64	842.22
388.78	787.56
388.91	767.44
389.04	802.44
389.17	906.78
389.31	815.33
389.44	832.89
389.57	864.89
389.70	832.89
389.84	788.67
389.97	790.11
390.10	786.44
390.24	832.67
390.37	798.89
390.50	786.22
390.63	871.00
390.77	806.67
390.90	813.67
391.03	806.00
391.16	761.22
391.30	788.44
391.43	791.89
391.56	791.44
391.69	776.78
391.83	852.44
391.96	810.44
392.09	792.22
392.22	886.89
392.36	819.44
392.49	773.67
392.62	797.22
392.75	827.22
392.89	870.33
393.02	777.00
393.15	772.00
393.28	752.78
393.42	896.89
393.55	763.44
393.68	790.67
393.81	738.11
393.95	788.11
394.08	784.11
394.21	787.78
394.34	844.67
394.48	834.67
394.61	844.67
394.74	822.67
394.87	852.11
395.01	828.56
395.14	829.33
395.27	789.11
395.40	896.44
395.54	897.22
395.67	807.11
395.80	794.56
395.93	832.67
396.07	780.11
396.20	785.33
396.33	740.78
396.46	785.89
396.59	804.67
396.73	797.56
396.86	773.89
396.99	857.33
397.12	817.33
397.26	808.56
397.39	804.22
397.52	1088.00
397.65	908.33
397.79	811.11
397.92	791.78
398.05	855.00
398.18	791.00
398.32	796.44
398.45	835.11
398.58	821.56
398.71	820.33
398.84	766.78
398.98	801.00
399.11	832.67
399.24	830.11
399.37	791.78
399.51	770.89
399.64	807.56
399.77	812.33
399.90	803.56
400.03	806.00
400.17	762.67
400.30	867.67
400.43	835.89
400.56	810.67
400.70	808.56
400.83	779.78
400.96	777.44
401.09	810.67
401.23	809.44
401.36	870.11
401.49	796.44
401.62	807.44
401.75	795.00
401.89	774.89
402.02	795.89
402.15	806.22
402.28	822.00
402.41	815.33
402.55	786.11
402.68	796.89
402.81	872.22
402.94	845.22
403.08	788.89
403.21	763.89
403.34	837.56
403.47	839.56
403.60	800.44
403.74	831.22
403.87	837.11
404.00	778.56
404.13	785.11
404.26	765.33
404.40	772.56
404.53	814.78
404.66	794.78
404.79	775.89
404.93	840.00
405.06	806.44
405.19	754.44
405.32	808.67
405.45	826.11
405.59	838.22
405.72	807.89
405.85	774.67
405.98	966.22
406.11	773.89
406.25	776.89
406.38	794.67
406.51	835.44
406.64	801.56
406.77	759.22
406.91	762.00
407.04	821.44
407.17	790.33
407.30	824.00
407.43	802.67
407.57	883.67
407.70	860.56
407.83	775.11
407.96	803.67
408.09	767.78
408.23	887.67
408.36	804.00
408.49	793.78
408.62	914.56
408.75	814.67
408.89	776.89
409.02	820.22
409.15	809.11
409.28	881.89
409.41	831.44
409.55	780.89
409.68	918.78
409.81	824.78
409.94	780.67
410.07	808.56
410.20	808.00
410.34	797.44
410.47	807.78
410.60	812.22
410.73	835.78
410.86	783.33
411.00	805.33
411.13	771.89
411.26	807.56
411.39	814.00
411.52	821.67
411.66	791.67
411.79	788.78
411.92	774.22
412.05	795.00
412.18	792.89
412.31	825.44
412.45	843.22
412.58	842.56
412.71	763.33
412.84	823.78
412.97	879.22
413.11	812.67
413.24	816.00
413.37	844.56
413.50	904.33
413.63	814.56
413.76	795.00
413.90	834.56
414.03	796.22
414.16	794.89
414.29	828.78
414.42	809.78
414.56	904.89
414.69	789.44
414.82	806.11
414.95	802.56
415.08	825.44
415.21	803.22
415.35	820.22
415.48	736.33
415.61	844.89
415.74	854.56
415.87	763.00
416.00	817.33
416.14	916.11
416.27	811.56
416.40	779.67
416.53	803.00
416.66	828.00
416.79	808.78
416.93	772.33
417.06	859.89
417.19	817.22
417.32	794.33
417.45	791.56
417.58	756.56
417.72	854.33
417.85	786.22
417.98	803.89
418.11	836.67
418.24	788.11
418.37	796.44
418.51	807.67
418.64	809.44
418.77	882.44
418.90	821.44
419.03	767.44
419.16	821.33
419.29	846.33
419.43	789.89
419.56	773.56
419.69	917.00
419.82	851.22
419.95	808.56
420.08	846.33
420.22	870.67
420.35	924.89
420.48	849.00
420.61	801.44
420.74	754.22
420.87	835.11
421.00	768.22
421.14	793.00
421.27	843.56
421.40	873.89
421.53	829.44
421.66	811.11
421.79	804.22
421.93	807.78
422.06	804.67
422.19	785.33
422.32	852.56
422.45	850.56
422.58	819.11
422.71	791.00
422.85	846.22
422.98	845.67
423.11	762.33
423.24	758.56
423.37	772.11
423.50	781.11
423.63	808.67
423.77	777.33
423.90	775.00
424.03	824.78
424.16	835.22
424.29	808.44
424.42	759.33
424.55	772.67
424.69	774.22
424.82	807.22
424.95	820.78
425.08	778.00
425.21	828.44
425.34	790.56
425.47	804.56
425.60	817.22
425.74	761.56
425.87	789.56
426.00	802.22
426.13	811.78
426.26	778.00
426.39	782.33
426.52	796.00
426.66	871.22
426.79	826.89
426.92	779.00
427.05	902.56
427.18	877.00
427.31	797.33
427.44	792.44
427.57	775.89
427.71	809.56
427.84	766.11
427.97	806.67
428.10	866.33
428.23	815.33
428.36	789.00
428.49	717.89
428.62	930.33
428.76	899.89
428.89	818.11
429.02	761.56
429.15	802.00
429.28	898.11
429.41	789.67
429.54	801.22
429.67	788.89
429.81	829.33
429.94	804.11
430.07	786.44
430.20	849.78
430.33	869.78
430.46	772.89
430.59	778.11
430.72	803.89
430.85	759.78
430.99	794.00
431.12	772.44
431.25	854.56
431.38	867.56
431.51	807.78
431.64	806.00
431.77	879.22
431.90	873.22
432.03	806.78
432.17	780.56
432.30	806.67
432.43	821.44
432.56	803.56
432.69	824.22
432.82	818.33
432.95	864.67
433.08	803.11
433.21	811.44
433.35	800.11
433.48	801.11
433.61	772.67
433.74	806.11
433.87	779.56
434.00	836.78
434.13	778.67
434.26	829.33
434.39	826.11
434.53	831.11
434.66	796.11
434.79	792.22
434.92	786.33
435.05	865.33
435.18	785.00
435.31	827.11
435.44	861.33
435.57	812.78
435.70	801.00
435.84	776.56
435.97	869.00
436.10	905.11
436.23	789.33
436.36	774.11
436.49	791.44
436.62	825.11
436.75	800.11
436.88	821.33
437.01	774.00
437.14	774.22
437.28	758.89
437.41	787.89
437.54	860.22
437.67	830.44
437.80	782.44
437.93	756.56
438.06	922.44
438.19	854.11
438.32	771.89
438.45	776.56
438.58	829.11
438.72	878.89
438.85	842.67
438.98	796.11
439.11	822.56
439.24	871.11
439.37	862.44
439.50	837.67
439.63	852.89
439.76	786.22
439.89	779.00
440.02	788.11
440.15	826.56
440.29	867.00
440.42	805.44
440.55	794.78
440.68	878.33
440.81	927.00
440.94	816.89
441.07	807.11
441.20	898.56
441.33	827.44
441.46	798.33
441.59	789.44
441.72	805.67
441.85	813.00
441.99	835.78
442.12	838.22
442.25	893.00
442.38	832.44
442.51	824.33
442.64	761.11
442.77	813.00
442.90	794.22
443.03	762.89
443.16	792.22
443.29	813.56
443.42	876.33
443.55	788.33
443.68	814.56
443.82	764.44
443.95	786.89
444.08	793.67
444.21	803.22
444.34	782.78
444.47	799.56
444.60	800.89
444.73	817.89
444.86	813.89
444.99	872.67
445.12	828.00
445.25	818.67
445.38	819.78
445.51	847.56
445.64	818.00
445.78	789.11
445.91	745.78
446.04	920.44
446.17	848.44
446.30	752.56
446.43	823.67
446.56	805.78
446.69	776.00
446.82	786.22
446.95	845.33
447.08	853.78
447.21	815.44
447.34	789.89
447.47	853.67
447.60	846.00
447.73	811.56
447.86	840.78
447.99	816.11
448.13	823.33
448.26	839.00
448.39	798.11
448.52	837.78
448.65	850.44
448.78	799.00
448.91	802.67
449.04	832.33
449.17	787.89
449.30	830.78
449.43	819.00
449.56	806.22
449.69	863.89
449.82	800.89
449.95	764.56
450.08	858.44
450.21	834.11
450.34	810.89
450.47	801.33
450.60	841.22
450.73	816.78
450.87	802.00
451.00	824.56
451.13	848.00
451.26	957.33
451.39	794.00
451.52	820.44
451.65	799.00
451.78	790.78
451.91	791.44
452.04	776.78
452.17	886.67
452.30	884.89
452.43	793.67
452.56	789.00
452.69	859.33
452.82	773.22
452.95	846.67
453.08	780.56
453.21	737.78
453.34	843.00
453.47	786.22
453.60	846.44
453.73	890.33
453.86	837.56
453.99	820.00
454.12	821.78
454.25	800.67
454.38	814.22
454.52	772.56
454.65	795.56
454.78	785.00
454.91	755.44
455.04	788.67
455.17	765.00
455.30	782.22
455.43	863.78
455.56	794.89
455.69	763.44
455.82	826.67
455.95	820.33
456.08	765.56
456.21	767.56
456.34	759.33
456.47	739.56
456.60	788.56
456.73	774.22
456.86	797.44
456.99	825.89
457.12	774.00
457.25	783.89
457.38	859.33
457.51	834.56
457.64	816.00
457.77	788.67
457.90	796.33
458.03	785.56
458.16	794.11
458.29	802.33
458.42	802.44
458.55	754.22
458.68	777.33
458.81	795.11
458.94	869.89
459.07	904.00
459.20	764.56
459.33	775.56
459.46	858.89
459.59	895.89
459.72	860.44
459.85	801.56
459.98	879.78
460.11	834.67
460.24	808.22
460.37	766.89
460.50	847.56
460.63	805.33
460.76	790.11
460.89	806.00
461.02	834.22
461.15	840.11
461.28	800.33
461.41	791.89
461.54	882.22
461.67	773.22
461.80	804.89
461.93	845.89
462.06	833.67
462.19	852.56
462.32	789.89
462.45	783.00
462.58	833.11
462.71	792.33
462.84	805.44
462.97	743.11
463.10	800.78
463.23	816.78
463.36	837.22
463.49	811.56
463.62	755.78
463.75	830.11
463.88	796.00
464.01	806.11
464.14	767.33
464.27	892.22
464.40	800.67
464.53	800.89
464.66	831.11
464.79	826.89
464.92	815.78
465.05	778.44
465.18	799.67
465.31	806.89
465.44	801.44
465.57	783.78
465.70	789.78
465.83	912.22
465.96	816.56
466.09	784.56
466.22	851.44
466.35	827.67
466.48	786.00
466.61	780.44
466.74	797.22
466.87	845.33
467.00	830.89
467.13	822.78
467.26	839.11
467.39	756.44
467.52	759.00
467.65	795.33
467.78	869.44
467.91	806.22
468.04	813.00
468.17	781.00
468.30	793.33
468.43	760.22
468.56	775.44
468.69	823.22
468.82	837.56
468.95	770.22
469.08	792.89
469.21	802.56
469.34	837.22
469.47	904.67
469.60	883.78
469.73	815.89
469.86	823.44
469.99	844.89
470.11	767.67
470.24	784.67
470.37	840.22
470.50	813.44
470.63	785.11
470.76	800.11
470.89	850.89
471.02	907.89
471.15	793.11
471.28	800.33
471.41	901.78
471.54	827.22
471.67	798.00
471.80	740.44
471.93	847.00
472.06	820.44
472.19	797.89
472.32	778.67
472.45	903.33
472.58	852.78
472.71	809.56
472.84	783.78
472.97	782.78
473.10	762.33
473.23	838.00
473.36	752.89
473.49	859.67
473.62	846.00
473.74	824.67
473.87	844.89
474.00	779.11
474.13	777.22
474.26	816.89
474.39	839.22
474.52	806.89
474.65	792.56
474.78	805.00
474.91	758.00
475.04	827.78
475.17	919.44
475.30	829.78
475.43	819.89
475.56	858.33
475.69	806.78
475.82	832.44
475.95	778.33
476.08	868.00
476.21	812.22
476.34	848.89
476.46	842.33
476.59	869.33
476.72	789.67
476.85	795.89
476.98	775.22
477.11	859.00
477.24	811.22
477.37	752.11
477.50	787.33
477.63	816.56
477.76	774.67
477.89	738.44
478.02	760.78
478.15	803.11
478.28	789.22
478.41	826.00
478.54	789.67
478.66	846.00
478.79	805.78
478.92	797.00
479.05	799.00
479.18	806.56
479.31	779.11
479.44	783.33
479.57	773.00
479.70	791.56
479.83	810.78
479.96	791.89
480.09	829.44
480.22	933.11
480.35	916.78
480.48	849.78
480.60	811.00
480.73	786.89
480.86	824.89
480.99	796.78
481.12	795.00
481.25	806.22
481.38	868.33
481.51	796.00
481.64	810.67
481.77	831.11
481.90	798.67
482.03	797.11
482.16	789.89
482.29	863.33
482.41	807.78
482.54	834.11
482.67	782.78
482.80	806.56
482.93	852.00
483.06	779.67
483.19	858.67
483.32	835.00
483.45	808.00
483.58	812.89
483.71	840.56
483.84	846.78
483.97	828.00
484.09	809.00
484.22	787.44
484.35	782.56
484.48	752.33
484.61	780.00
484.74	790.56
484.87	819.56
485.00	768.89
485.13	826.22
485.26	770.44
485.39	831.11
485.52	798.78
485.64	871.78
485.77	835.00
485.90	864.89
486.03	772.11
486.16	819.56
486.29	769.33
486.42	800.67
486.55	818.56
486.68	799.22
486.81	829.44
486.94	815.11
487.06	790.33
487.19	837.56
487.32	829.22
487.45	815.89
487.58	791.22
487.71	804.56
487.84	765.78
487.97	836.33
488.10	851.00
488.23	789.11
488.35	755.67
488.48	792.56
488.61	769.44
488.74	789.11
488.87	784.78
489.00	814.56
489.13	893.44
489.26	832.78
489.39	836.56
489.52	843.33
489.64	835.89
489.77	820.00
489.90	810.78
490.03	799.67
490.16	786.78
490.29	782.11
490.42	779.67
490.55	811.33
490.68	769.22
490.81	788.89
490.93	761.00
491.06	865.22
491.19	833.00
491.32	816.78
491.45	835.22
491.58	759.22
491.71	808.33
491.84	792.56
491.97	791.00
492.09	863.44
492.22	816.33
492.35	806.56
492.48	844.33
492.61	823.67
492.74	805.44
492.87	825.78
493.00	804.44
493.12	777.56
493.25	805.67
493.38	801.67
493.51	774.78
493.64	759.56
493.77	810.00
493.90	823.67
494.03	829.33
494.16	857.78
494.28	872.67
494.41	802.89
494.54	803.67
494.67	914.11
494.80	879.89
494.93	805.22
495.06	828.56
495.19	828.44
495.31	810.33
495.44	793.11
495.57	780.33
495.70	828.22
495.83	801.67
495.96	774.89
496.09	812.67
496.22	872.00
496.34	897.33
496.47	803.67
496.60	832.89
496.73	853.33
496.86	853.33
496.99	776.89
497.12	806.78
497.24	751.89
497.37	810.89
497.50	796.22
497.63	775.67
497.76	808.44
497.89	869.56
498.02	840.56
498.15	727.11
498.27	808.67
498.40	853.22
498.53	872.00
498.66	824.56
498.79	855.22
498.92	773.56
499.05	827.00
499.17	803.67
499.30	841.33
499.43	888.67
499.56	824.56
499.69	756.00
499.82	820.89
499.95	792.89
500.07	784.11
500.20	806.33
500.33	849.78
500.46	942.44
500.59	813.44
500.72	820.11
500.85	866.56
500.97	855.22
501.10	855.67
501.23	778.33
501.36	818.56
501.49	876.67
501.62	833.67
501.75	818.78
501.87	862.22
502.00	765.56
502.13	817.67
502.26	823.11
502.39	793.11
502.52	794.78
502.64	757.33
502.77	782.67
502.90	842.67
503.03	811.00
503.16	785.56
503.29	781.89
503.42	860.11
503.54	824.00
503.67	813.89
503.80	815.22
503.93	858.00
504.06	776.33
504.19	810.44
504.31	859.11
504.44	819.33
504.57	830.89
504.70	818.78
504.83	768.22
504.96	832.67
505.08	808.78
505.21	818.56
505.34	908.44
505.47	870.00
505.60	844.67
505.73	866.33
505.85	849.33
505.98	942.44
506.11	807.89
506.24	779.44
506.37	780.22
506.50	816.56
506.62	848.44
506.75	791.89
506.88	781.44
507.01	822.89
507.14	765.89
507.27	797.67
507.39	776.11
507.52	788.00
507.65	790.11
507.78	831.89
507.91	779.44
508.04	867.44
508.16	867.44
508.29	826.22
508.42	796.11
508.55	773.56
508.68	781.22
508.81	851.67
508.93	788.89
509.06	795.67
509.19	849.33
509.32	840.78
509.45	827.11
509.57	830.67
509.70	780.56
509.83	807.11
509.96	774.11
510.09	812.22
510.22	804.22
510.34	820.33
510.47	805.00
510.60	906.22
510.73	822.22
510.86	834.00
510.98	795.11
511.11	795.00
511.24	856.67
511.37	837.33
511.50	803.89
511.63	824.56
511.75	818.33
511.88	810.56
512.01	833.22
512.14	813.67
512.27	823.44
512.39	803.89
512.52	808.44
512.65	818.56
512.78	781.89
512.91	811.67
513.03	813.00
513.16	848.33
513.29	819.56
513.42	798.11
513.55	774.56
513.67	826.00
513.80	765.33
513.93	792.33
514.06	793.56
514.19	828.67
514.31	824.00
514.44	843.89
514.57	803.33
514.70	810.33
514.83	864.33
514.95	788.33
515.08	824.67
515.21	835.89
515.34	819.33
515.47	810.22
515.59	787.78
515.72	827.00
515.85	827.67
515.98	861.44
516.11	821.78
516.23	845.67
516.36	874.78
516.49	831.11
516.62	816.67
516.75	874.33
516.87	874.67
517.00	795.11
517.13	839.89
517.26	858.78
517.39	834.00
517.51	760.00
517.64	811.56
517.77	886.44
517.90	780.89
518.02	805.67
518.15	772.44
518.28	733.78
518.41	803.00
518.54	813.89
518.66	819.22
518.79	777.67
518.92	794.33
519.05	782.56
519.18	801.78
519.30	837.67
519.43	769.67
519.56	786.89
519.69	796.00
519.81	851.89
519.94	797.56
520.07	746.00
520.20	792.44
520.33	819.67
520.45	877.67
520.58	827.67
520.71	831.22
520.84	859.44
520.96	826.11
521.09	810.11
521.22	793.33
521.35	847.00
521.48	841.22
521.60	791.89
521.73	812.11
521.86	870.56
521.99	890.78
522.11	831.78
522.24	810.33
522.37	838.44
522.50	826.11
522.62	861.89
522.75	759.78
522.88	822.22
523.01	788.89
523.14	831.11
523.26	830.33
523.39	880.56
523.52	790.56
523.65	895.11
523.77	845.44
523.90	811.44
524.03	797.89
524.16	800.44
524.28	799.56
524.41	803.33
524.54	802.11
524.67	772.56
524.79	797.00
524.92	836.11
525.05	879.89
525.18	775.89
525.31	842.11
525.43	773.11
525.56	916.67
525.69	791.89
525.82	749.11
525.94	844.89
526.07	848.89
526.20	834.56
526.33	852.33
526.45	937.67
526.58	905.11
526.71	828.22
526.84	803.56
526.96	819.22
527.09	788.44
527.22	803.56
527.35	792.22
527.47	765.33
527.60	878.11
527.73	780.44
527.86	842.11
527.98	830.00
528.11	840.44
528.24	777.00
528.37	800.33
528.49	769.78
528.62	811.67
528.75	841.11
528.88	783.44
529.00	845.44
529.13	858.67
529.26	818.56
529.39	843.89
529.51	934.67
529.64	911.44
529.77	787.56
529.90	801.67
530.02	795.22
530.15	784.67
530.28	746.44
530.40	788.00
530.53	807.33
530.66	830.89
530.79	794.89
530.91	810.00
531.04	794.00
531.17	803.33
531.30	807.33
531.42	806.33
531.55	812.11
531.68	863.22
531.81	782.33
531.93	807.56
532.06	822.22
532.19	775.67
532.31	801.78
532.44	797.89
532.57	829.78
532.70	785.89
532.82	819.56
532.95	846.11
533.08	874.00
533.21	835.56
533.33	779.22
533.46	791.00
533.59	795.78
533.71	914.11
533.84	823.89
533.97	798.89
534.10	791.67
534.22	776.78
534.35	807.11
534.48	816.33
534.61	840.00
534.73	746.44
534.86	777.78
534.99	822.89
535.11	864.67
535.24	825.89
535.37	785.22
535.50	765.67
535.62	775.33
535.75	867.78
535.88	813.89
536.00	789.67
536.13	797.00
536.26	798.11
536.39	791.67
536.51	764.00
536.64	828.67
536.77	813.33
536.89	810.00
537.02	816.44
537.15	836.00
537.28	811.56
537.40	821.78
537.53	792.44
537.66	854.44
537.78	818.89
537.91	779.00
538.04	791.67
538.17	850.00
538.29	827.00
538.42	878.00
538.55	867.89
538.67	837.33
538.80	785.22
538.93	822.44
539.05	815.33
539.18	871.00
539.31	837.11
539.44	820.89
539.56	738.78
539.69	802.11
539.82	790.11
539.94	774.22
540.07	777.89
540.20	871.67
540.32	786.11
540.45	802.56
540.58	795.22
540.71	850.78
540.83	764.78
540.96	791.11
541.09	799.44
541.21	879.56
541.34	860.44
541.47	779.00
541.59	812.44
541.72	880.78
541.85	951.78
541.98	858.67
542.10	813.22
542.23	827.78
542.36	932.11
542.48	824.22
542.61	810.00
542.74	778.78
542.86	793.67
542.99	804.22
543.12	784.11
543.24	815.67
543.37	755.78
543.50	798.44
543.62	791.67
543.75	801.67
543.88	794.89
544.01	818.00
544.13	837.00
544.26	829.78
544.39	789.56
544.51	786.89
544.64	771.56
544.77	829.44
544.89	788.22
545.02	810.67
545.15	785.22
545.27	889.44
545.40	855.44
545.53	832.89
545.65	829.67
545.78	741.67
545.91	770.00
546.03	795.67
546.16	803.33
546.29	785.44
546.41	759.78
546.54	795.11
546.67	776.56
546.79	837.22
546.92	877.22
547.05	752.56
547.17	808.56
547.30	775.56
547.43	828.67
547.56	774.78
547.68	806.89
547.81	757.11
547.94	825.33
548.06	795.00
548.19	773.00
548.32	864.11
548.44	817.00
548.57	823.22
548.70	841.11
548.82	849.22
548.95	841.00
549.08	805.00
549.20	794.67
549.33	885.00
549.45	809.89
549.58	802.67
549.71	768.56
549.83	850.78
549.96	766.89
550.09	807.56
550.21	788.11
550.34	817.67
550.47	795.67
550.59	793.22
550.72	733.22
550.85	803.67
550.97	861.11
551.10	785.78
551.23	798.22
551.35	872.11
551.48	818.33
551.61	795.56
551.73	785.67
551.86	870.11
551.99	871.44
552.11	808.89
552.24	844.11
552.37	817.44
552.49	780.44
552.62	785.56
552.75	835.33
552.87	793.67
553.00	782.00
553.12	809.78
553.25	788.89
553.38	829.22
553.50	864.22
553.63	806.22
553.76	749.67
553.88	806.11
554.01	803.00
554.14	801.56
554.26	831.67
554.39	876.11
554.52	801.11
554.64	809.00
554.77	786.33
554.89	838.22
555.02	853.44
555.15	821.67
555.27	810.11
555.40	809.44
555.53	856.44
555.65	798.78
555.78	769.44
555.91	835.00
556.03	868.44
556.16	772.56
556.29	807.89
556.41	866.56
556.54	869.00
556.66	812.00
556.79	789.56
556.92	808.33
557.04	818.22
557.17	788.00
557.30	789.78
557.42	788.00
557.55	797.00
557.67	819.11
557.80	802.89
557.93	813.22
558.05	816.22
558.18	773.11
558.31	808.89
558.43	845.33
558.56	826.33
558.68	805.56
558.81	777.89
558.94	794.22
559.06	910.89
559.19	794.22
559.32	789.11
559.44	765.33
559.57	802.89
559.69	776.11
559.82	776.67
559.95	791.44
560.07	790.89
560.20	732.56
560.33	805.89
560.45	812.00
560.58	751.22
560.70	799.78
560.83	764.33
560.96	779.33
561.08	787.44
561.21	820.78
561.33	773.44
561.46	752.67
561.59	834.67
561.71	789.00
561.84	810.78
561.97	773.33
562.09	831.89
562.22	782.33
562.34	779.11
562.47	835.00
562.60	820.11
562.72	795.22
562.85	805.56
562.97	792.00
563.10	790.56
563.23	775.11
563.35	769.89
563.48	808.56
563.60	790.78
563.73	821.89
563.86	755.78
563.98	776.44
564.11	795.78
564.23	796.67
564.36	858.22
564.49	801.33
564.61	858.89
564.74	811.56
564.86	773.78
564.99	847.33
565.12	831.44
565.24	850.00
565.37	844.67
565.49	847.44
565.62	868.89
565.75	839.78
565.87	775.67
566.00	932.00
566.12	861.11
566.25	810.44
566.38	841.89
566.50	805.22
566.63	837.56
566.75	793.11
566.88	778.44
567.01	761.89
567.13	786.00
567.26	798.78
567.38	779.78
567.51	841.33
567.64	778.78
567.76	826.00
567.89	815.00
568.01	772.67
568.14	761.89
568.26	811.33
568.39	808.33
568.52	796.89
568.64	831.56
568.77	785.56
568.89	777.22
569.02	778.67
569.15	797.22
569.27	793.78
569.40	820.22
569.52	825.67
569.65	771.44
569.77	788.89
569.90	760.78
570.03	755.67
570.15	863.78
570.28	795.89
570.40	790.89
570.53	790.22
570.66	858.00
570.78	840.11
570.91	810.89
571.03	763.22
571.16	798.44
571.28	763.00
571.41	746.00
571.54	747.67
571.66	738.22
571.79	765.67
571.91	770.33
572.04	754.33
572.16	813.00
572.29	829.44
572.42	779.89
572.54	805.67
572.67	767.89
572.79	816.67
572.92	796.67
573.04	819.44
573.17	842.22
573.29	809.56
573.42	784.56
573.55	824.00
573.67	819.89
573.80	796.67
573.92	765.11
574.05	801.89
574.17	847.22
574.30	798.67
574.43	787.78
574.55	777.22
574.68	805.11
574.80	775.33
574.93	785.33
575.05	765.67
575.18	787.78
575.30	783.78
575.43	823.00
575.56	850.67
575.68	819.22
575.81	785.89
575.93	763.89
576.06	815.00
576.18	828.56
576.31	789.67
576.43	783.44
576.56	894.89
576.69	859.11
576.81	808.67
576.94	788.56
577.06	799.11
577.19	834.00
577.31	804.67
577.44	816.44
577.56	843.89
577.69	812.89
577.82	815.11
577.94	777.67
578.07	745.78
578.19	819.11
578.32	829.78
578.44	778.67
578.57	785.44
578.69	839.33
578.82	808.44
578.94	826.78
579.07	844.78
579.19	835.33
579.32	815.56
579.45	812.67
579.57	791.11
579.70	765.67
579.82	808.78
579.95	788.44
580.07	857.56
580.20	796.89
580.32	805.11
580.45	830.56
580.57	829.78
580.70	828.78
580.82	825.00
580.95	830.67
581.08	764.89
581.20	846.67
581.33	789.11
581.45	820.78
581.58	808.44
581.70	819.44
581.83	723.89
581.95	815.44
582.08	829.78
582.20	789.22
582.33	804.11
582.45	777.89
582.58	787.33
582.70	809.11
582.83	778.89
582.95	792.56
583.08	838.78
583.21	848.33
583.33	814.67
583.46	782.89
583.58	756.11
583.71	828.89
583.83	818.22
583.96	818.78
584.08	833.11
584.21	832.78
584.33	827.22
584.46	794.33
584.58	760.56
584.71	831.89
584.83	824.33
584.96	801.33
585.08	777.44
585.21	890.11
585.33	861.22
585.46	834.11
585.58	837.22
585.71	785.33
585.83	806.56
585.96	843.78
586.08	823.56
586.21	820.33
586.33	842.56
586.46	770.33
586.59	833.11
586.71	780.00
586.84	829.89
586.96	810.44
587.09	753.00
587.21	781.78
587.34	843.44
587.46	797.00
587.59	759.33
587.71	795.56
587.84	785.89
587.96	752.44
588.09	759.44
588.21	820.00
588.34	795.22
588.46	816.44
588.59	784.33
588.71	817.33
588.84	812.56
588.96	799.67
589.09	891.22
589.21	809.11
589.34	777.78
589.46	800.89
589.59	805.11
589.71	848.56
589.84	755.22
589.96	778.44
590.09	792.33
590.21	829.33
590.34	813.33
590.46	808.22
590.59	774.67
590.71	788.00
590.84	838.67
590.96	773.78
591.09	821.22
591.21	809.56
591.34	787.33
591.46	799.67
591.59	854.67
591.71	823.67
591.83	797.00
591.96	749.33
592.08	788.44
592.21	832.00
592.33	806.33
592.46	789.89
592.58	811.11
592.71	841.33
592.83	895.89
592.96	837.67
593.08	851.67
593.21	766.11
593.33	764.89
593.46	794.33
593.58	792.89
593.71	838.33
593.83	850.33
593.96	777.89
594.08	911.89
594.21	799.56
594.33	793.56
594.46	772.22
594.58	755.78
594.71	740.56
594.83	812.00
594.96	797.44
595.08	954.78
595.20	834.89
595.33	819.44
595.45	776.00
595.58	883.11
595.70	820.56
595.83	793.33
595.95	801.67
596.08	818.33
596.20	761.67
596.33	755.11
596.45	799.00
596.58	769.67
596.70	761.22
596.83	787.33
596.95	783.33
597.08	804.22
597.20	765.67
597.32	778.67
597.45	816.44
597.57	792.56
597.70	832.67
597.82	787.22
597.95	811.22
598.07	803.78
598.20	810.22
598.32	793.33
598.45	790.22
598.57	844.67
598.70	860.00
598.82	789.00
598.94	789.67
599.07	841.78
599.19	800.56
599.32	786.00
599.44	717.67
599.57	841.11
599.69	819.00
599.82	794.00
599.94	766.33
600.07	841.11
600.19	819.78
600.31	776.22
600.44	836.22
600.56	909.56
600.69	884.44
600.81	789.67
600.94	794.56
601.06	801.67
601.19	828.22
601.31	838.89
601.44	762.00
601.56	853.67
601.68	832.00
601.81	813.89
601.93	805.78
602.06	823.89
602.18	762.11
602.31	794.89
602.43	856.11
602.56	835.11
602.68	804.44
602.80	801.78
602.93	812.00
603.05	777.89
603.18	808.44
603.30	775.11
603.43	765.67
603.55	796.89
603.68	819.89
603.80	819.22
603.92	806.22
604.05	779.56
604.17	780.33
604.30	763.89
604.42	790.78
604.55	790.22
604.67	830.00
604.79	779.67
604.92	789.89
605.04	776.67
605.17	785.11
605.29	783.67
605.42	771.11
605.54	857.33
605.66	812.78
605.79	820.44
605.91	793.33
606.04	798.56
606.16	778.11
606.29	817.22
606.41	768.22
606.53	791.00
606.66	751.00
606.78	796.11
606.91	791.89
607.03	783.22
607.16	781.56
607.28	770.44
607.40	807.44
607.53	822.11
607.65	767.89
607.78	767.22
607.90	804.00
608.03	900.00
608.15	814.00
608.27	819.00
608.40	758.67
608.52	816.56
608.65	802.00
608.77	837.44
608.89	799.78
609.02	871.33
609.14	877.33
609.27	825.22
609.39	839.22
609.52	781.33
609.64	737.33
609.76	781.67
609.89	791.56
610.01	855.22
610.14	833.44
610.26	796.67
610.38	769.11
610.51	831.67
610.63	789.22
610.76	769.22
610.88	822.33
611.01	858.00
611.13	890.11
611.25	832.56
611.38	769.67
611.50	797.00
611.63	819.56
611.75	808.11
611.87	813.67
612.00	786.78
612.12	841.89
612.25	788.78
612.37	777.11
612.49	864.33
612.62	841.89
612.74	866.56
612.87	806.22
612.99	799.56
613.11	749.78
613.24	785.78
613.36	793.00
613.49	802.56
613.61	806.56
613.73	787.11
613.86	837.11
613.98	774.00
614.11	832.22
614.23	835.00
614.35	850.33
614.48	843.00
614.60	812.78
614.72	788.33
614.85	821.11
614.97	808.44
615.10	802.00
615.22	791.11
615.34	811.78
615.47	849.00
615.59	777.78
615.72	806.67
615.84	823.00
615.96	779.78
616.09	888.56
616.21	793.33
616.34	781.78
616.46	790.22
616.58	830.67
616.71	827.00
616.83	840.33
616.95	826.67
617.08	829.00
617.20	800.22
617.33	764.00
617.45	792.22
617.57	822.89
617.70	812.00
617.82	786.11
617.95	802.56
618.07	867.44
618.19	827.11
618.32	813.89
618.44	787.56
618.56	764.22
618.69	740.56
618.81	743.00
618.94	826.44
619.06	800.00
619.18	795.44
619.31	766.33
619.43	765.11
619.55	818.56
619.68	819.44
619.80	767.44
619.92	822.11
620.05	917.22
620.17	859.67
620.30	806.78
620.42	821.22
620.54	844.78
620.67	781.22
620.79	808.67
620.91	825.78
621.04	865.44
621.16	788.44
621.29	774.67
621.41	752.33
621.53	786.33
621.66	797.00
621.78	785.89
621.90	844.67
622.03	892.44
622.15	810.44
622.27	798.00
622.40	805.33
622.52	782.89
622.64	779.56
622.77	756.11
622.89	812.78
623.02	842.56
623.14	824.00
623.26	826.33
623.39	822.89
623.51	853.33
623.63	790.44
623.76	773.33
623.88	857.89
624.00	807.11
624.13	770.78
624.25	773.89
624.37	759.78
624.50	838.11
624.62	826.67
624.75	767.33
624.87	766.89
624.99	819.00
625.12	781.89
625.24	793.22
625.36	870.89
625.49	829.11
625.61	818.56
625.73	816.89
625.86	838.89
625.98	796.67
626.10	774.56
626.23	762.11
626.35	812.67
626.47	782.11
626.60	763.78
626.72	777.11
626.84	774.22
626.97	811.11
627.09	795.67
627.21	791.56
627.34	900.00
627.46	890.89
627.58	802.67
627.71	816.00
627.83	836.33
627.95	764.67
628.08	805.11
628.20	839.67
628.32	747.22
628.45	728.00
628.57	739.89
628.69	771.00
628.82	817.44
628.94	855.11
629.06	800.89
629.19	783.00
629.31	837.33
629.43	762.00
629.56	813.44
629.68	801.22
629.80	840.89
629.93	762.22
630.05	772.00
630.17	763.11
630.30	789.44
630.42	769.11
630.54	822.89
630.67	803.78
630.79	778.67
630.91	919.00
631.04	820.11
631.16	808.56
631.28	808.33
631.41	770.56
631.53	758.78
631.65	806.22
631.78	826.11
631.90	793.67
632.02	800.44
632.14	725.33
632.27	858.33
632.39	797.89
632.51	781.89
632.64	847.78
632.76	804.22
632.88	776.78
633.01	804.67
633.13	791.33
633.25	808.44
633.38	897.00
633.50	753.00
633.62	752.56
633.75	746.00
633.87	729.89
633.99	815.78
634.11	758.78
634.24	782.78
634.36	789.00
634.48	780.78
634.61	784.67
634.73	818.56
634.85	775.44
634.98	772.89
635.10	780.11
635.22	795.33
635.35	909.78
635.47	810.44
635.59	789.00
635.71	815.11
635.84	845.78
635.96	788.56
636.08	836.33
636.21	776.00
636.33	807.67
636.45	794.00
636.58	776.67
636.70	742.56
636.82	816.56
636.94	772.67
637.07	743.44
637.19	823.78
637.31	823.67
637.44	821.22
637.56	749.33
637.68	810.67
637.81	811.33
637.93	800.33
638.05	756.22
638.17	838.56
638.30	903.22
638.42	794.56
638.54	772.44
638.67	782.67
638.79	793.89
638.91	764.33
639.03	791.22
639.16	782.78
639.28	788.33
639.40	805.67
639.53	776.44
639.65	826.11
639.77	789.89
639.89	799.56
640.02	794.44
640.14	803.33
640.26	753.33
640.39	814.22
640.51	771.22
640.63	815.00
640.75	838.11
640.88	797.11
641.00	777.78
641.12	771.11
641.24	867.11
641.37	779.89
641.49	764.89
641.61	891.33
641.74	777.22
641.86	812.22
641.98	760.11
642.10	807.22
642.23	810.67
642.35	782.22
642.47	810.11
642.60	801.67
642.72	822.22
642.84	738.78
642.96	759.89
643.09	759.89
643.21	754.11
643.33	760.44
643.45	767.89
643.58	837.89
643.70	866.22
643.82	776.56
643.94	778.00
644.07	801.00
644.19	811.44
644.31	808.00
644.44	801.78
644.56	784.33
644.68	758.22
644.80	760.89
644.93	757.11
645.05	764.22
645.17	806.67
645.29	801.33
645.42	806.89
645.54	798.78
645.66	817.89
645.78	789.22
645.91	769.33
646.03	818.11
646.15	863.78
646.27	781.56
646.40	805.44
646.52	819.22
646.64	840.44
646.76	785.89
646.89	736.00
647.01	826.33
647.13	813.89
647.25	826.22
647.38	780.22
647.50	757.56
647.62	826.33
647.74	746.67
647.87	758.33
647.99	803.33
648.11	820.33
648.23	791.44
648.36	742.11
648.48	847.33
648.60	796.56
648.72	769.67
648.85	755.56
648.97	839.33
649.09	806.89
649.21	773.33
649.34	805.89
649.46	812.00
649.58	803.78
649.70	814.56
649.83	775.56
649.95	841.00
650.07	834.11
650.19	826.78
650.32	798.44
650.44	837.44
650.56	814.67
650.68	781.78
650.81	783.78
650.93	777.78
651.05	848.89
651.17	770.78
651.29	822.89
651.42	789.33
651.54	816.22
651.66	765.78
651.78	768.22
651.91	815.33
652.03	903.33
652.15	819.56
652.27	771.33
652.40	801.67
652.52	785.00
652.64	807.33
652.76	772.67
652.88	882.67
653.01	798.11
653.13	754.33
653.25	725.67
653.37	815.67
653.50	832.33
653.62	821.00
653.74	747.33
653.86	828.56
653.98	822.89
654.11	765.33
654.23	781.11
654.35	775.11
654.47	903.00
654.60	784.44
654.72	789.67
654.84	755.56
654.96	836.67
655.08	782.56
655.21	814.33
655.33	783.67
655.45	840.22
655.57	799.67
655.70	795.11
655.82	839.11
655.94	871.78
656.06	826.22
656.18	753.67
656.31	845.22
656.43	816.56
656.55	769.78
656.67	785.44
656.79	789.00
656.92	848.00
657.04	816.00
657.16	781.78
657.28	907.11
657.40	814.78
657.53	827.89
657.65	787.22
657.77	845.33
657.89	846.67
658.01	784.56
658.14	757.89
658.26	821.22
658.38	776.00
658.50	758.78
658.62	756.67
658.75	914.00
658.87	835.22
658.99	823.33
659.11	765.11
659.23	840.11
659.36	878.22
659.48	838.67
659.60	816.56
659.72	805.22
659.84	796.22
659.97	819.89
660.09	833.78
660.21	914.78
660.33	842.89
660.45	742.78
660.58	724.67
660.70	771.22
660.82	781.00
660.94	756.22
661.06	790.22
661.19	844.00
661.31	833.67
661.43	795.67
661.55	790.56
661.67	832.44
661.80	859.67
661.92	797.33
662.04	809.33
662.16	795.44
662.28	858.33
662.40	799.00
662.53	799.00
662.65	817.11
662.77	767.33
662.89	809.11
663.01	773.22
663.14	792.78
663.26	812.11
663.38	793.89
663.50	760.00
663.62	777.11
663.74	796.78
663.87	782.00
663.99	799.56
664.11	814.67
664.23	901.33
664.35	790.67
664.48	776.44
664.60	783.44
664.72	782.67
664.84	747.44
664.96	782.44
665.08	842.44
665.21	812.22
665.33	822.00
665.45	744.33
665.57	793.78
665.69	871.89
665.81	791.78
665.94	760.11
666.06	765.56
666.18	815.00
666.30	782.89
666.42	768.78
666.54	808.00
666.67	825.33
666.79	766.11
666.91	822.44
667.03	781.22
667.15	752.89
667.27	788.00
667.40	762.11
667.52	780.33
667.64	831.67
667.76	775.56
667.88	756.56
668.00	824.78
668.13	833.78
668.25	757.78
668.37	763.44
668.49	774.11
668.61	839.22
668.73	790.33
668.85	805.22
668.98	815.44
669.10	803.56
669.22	780.33
669.34	791.89
669.46	833.56
669.58	783.67
669.71	799.89
669.83	796.22
669.95	782.56
670.07	793.67
670.19	777.67
670.31	789.67
670.43	783.22
670.56	814.78
670.68	840.67
670.80	810.67
670.92	804.56
671.04	853.56
671.16	781.11
671.28	777.56
671.41	780.11
671.53	824.89
671.65	782.78
671.77	787.44
671.89	933.44
672.01	878.33
672.13	831.67
672.26	761.44
672.38	805.00
672.50	766.44
672.62	787.78
672.74	809.00
672.86	791.67
672.98	803.22
673.11	796.22
673.23	805.22
673.35	850.89
673.47	790.33
673.59	801.89
673.71	756.00
673.83	821.44
673.96	916.11
674.08	796.89
674.20	755.89
674.32	791.11
674.44	795.11
674.56	818.67
674.68	811.67
674.80	821.44
674.93	796.78
675.05	789.11
675.17	807.67
675.29	830.44
675.41	833.00
675.53	790.22
675.65	789.44
675.77	792.89
675.90	845.67
676.02	776.44
676.14	760.44
676.26	862.22
676.38	890.22
676.50	808.11
676.62	823.11
676.74	762.11
676.87	777.22
676.99	808.22
677.11	828.67
677.23	810.11
677.35	821.78
677.47	746.44
677.59	774.22
677.71	816.22
677.83	827.89
677.96	803.11
678.08	802.22
678.20	799.00
678.32	769.89
678.44	792.56
678.56	795.22
678.68	923.22
678.80	832.89
678.93	790.22
679.05	803.89
679.17	797.44
679.29	843.56
679.41	801.22
679.53	772.22
679.65	771.44
679.77	808.56
679.89	789.78
680.01	822.78
680.14	826.44
680.26	740.89
680.38	779.78
680.50	822.44
680.62	882.00
680.74	816.22
680.86	791.89
680.98	800.11
681.10	822.00
681.22	891.22
681.35	782.22
681.47	786.00
681.59	769.11
681.71	872.89
681.83	803.44
681.95	776.44
682.07	848.33
682.19	817.22
682.31	781.67
682.43	758.56
682.56	826.22
682.68	753.78
682.80	758.22
682.92	815.78
683.04	804.89
683.16	793.11
683.28	770.89
683.40	824.67
683.52	796.33
683.64	818.11
683.76	769.56
683.89	779.89
684.01	796.44
684.13	852.11
684.25	803.00
684.37	801.11
684.49	834.33
684.61	792.22
684.73	801.44
684.85	791.33
684.97	764.33
685.09	857.33
685.21	768.89
685.34	795.22
685.46	919.22
685.58	825.78
685.70	814.78
685.82	844.11
685.94	774.33
686.06	770.44
686.18	760.33
686.30	785.56
686.42	756.00
686.54	830.11
686.66	764.11
686.79	863.56
686.91	810.22
687.03	906.78
687.15	829.56
687.27	791.89
687.39	792.33
687.51	870.22
687.63	809.00
687.75	847.56
687.87	824.44
687.99	867.00
688.11	764.00
688.23	819.67
688.35	843.33
688.48	823.44
688.60	767.67
688.72	792.89
688.84	809.78
688.96	829.00
689.08	796.89
689.20	796.22
689.32	917.00
689.44	814.56
689.56	755.33
689.68	774.44
689.80	786.11
689.92	774.89
690.04	779.67
690.16	833.00
690.28	818.78
690.41	810.22
690.53	771.78
690.65	838.78
690.77	851.00
690.89	844.56
691.01	802.89
691.13	782.11
691.25	759.44
691.37	795.33
691.49	745.56
691.61	747.00
691.73	870.67
691.85	802.33
691.97	787.67
692.09	769.00
692.21	845.56
692.33	869.44
692.45	813.67
692.57	777.22
692.70	808.67
692.82	822.78
692.94	744.33
693.06	773.89
693.18	803.11
693.30	786.33
693.42	771.89
693.54	812.33
693.66	809.78
693.78	821.56
693.90	785.56
694.02	800.11
694.14	816.89
694.26	784.00
694.38	806.44
694.50	813.33
694.62	820.67
694.74	761.22
694.86	760.33
694.98	803.44
695.10	818.00
695.22	846.67
695.34	781.22
695.46	779.89
695.58	777.89
695.71	812.56
695.83	774.00
695.95	782.89
696.07	855.89
696.19	766.44
696.31	780.89
696.43	767.44
696.55	877.22
696.67	811.33
696.79	780.78
696.91	798.11
697.03	782.67
697.15	878.22
697.27	806.00
697.39	781.67
697.51	833.00
697.63	770.11
697.75	774.22
697.87	805.44
697.99	751.00
698.11	733.11
698.23	761.22
698.35	779.56
698.47	774.67
698.59	809.00
698.71	781.00
698.83	844.00
698.95	768.11
699.07	801.67
699.19	777.67
699.31	796.22
699.43	770.00
699.55	818.78
699.67	783.89
699.79	782.22
699.91	772.22
700.03	801.00
700.15	802.56
700.27	761.56
700.39	793.56
700.51	755.56
700.63	789.00
700.75	783.44
700.87	804.89
700.99	774.44
701.11	818.44
701.24	794.56
701.36	828.67
701.48	839.11
701.60	818.67
701.72	766.56
701.84	854.33
701.96	807.89
702.08	798.89
702.20	877.22
702.32	828.78
702.44	824.00
702.56	790.11
702.68	792.00
702.80	799.22
702.92	881.56
703.04	868.56
703.16	806.11
703.28	808.22
703.40	787.33
703.52	810.67
703.64	823.11
703.76	811.78
703.88	786.56
704.00	774.11
704.12	790.89
704.24	844.11
704.36	807.00
704.48	818.11
704.60	759.78
704.72	784.56
704.84	784.00
704.96	825.00
705.07	810.56
705.19	766.22
705.31	783.00
705.43	823.89
705.55	774.78
705.67	818.33
705.79	799.33
705.91	734.89
706.03	785.44
706.15	803.78
706.27	782.44
706.39	783.00
706.51	773.22
706.63	778.56
706.75	825.89
706.87	818.56
706.99	860.00
707.11	800.44
707.23	780.67
707.35	817.89
707.47	805.78
707.59	828.67
707.71	837.78
707.83	793.22
707.95	839.78
708.07	784.33
708.19	914.00
708.31	817.11
708.43	765.00
708.55	812.22
708.67	857.89
708.79	811.00
708.91	840.00
709.03	814.67
709.15	844.11
709.27	780.56
709.39	810.78
709.51	787.89
709.63	817.00
709.75	823.89
709.87	763.00
709.99	832.11
710.11	776.78
710.23	775.33
710.35	758.11
710.47	899.89
710.58	848.56
710.70	848.67
710.82	856.89
710.94	802.00
711.06	792.33
711.18	809.78
711.30	778.56
711.42	829.89
711.54	796.22
711.66	825.11
711.78	777.11
711.90	821.78
712.02	871.11
712.14	774.22
712.26	756.11
712.38	848.56
712.50	861.00
712.62	786.89
712.74	777.56
712.86	777.22
712.98	842.00
713.10	774.00
713.22	762.56
713.34	804.67
713.45	779.22
713.57	815.22
713.69	764.44
713.81	782.56
713.93	803.89
714.05	789.33
714.17	749.89
714.29	858.44
714.41	846.56
714.53	791.22
714.65	819.78
714.77	807.44
714.89	760.11
715.01	847.89
715.13	771.56
715.25	810.00
715.37	768.11
715.49	748.78
715.61	817.89
715.72	818.56
715.84	847.22
715.96	793.33
716.08	787.89
716.20	866.56
716.32	838.78
716.44	792.44
716.56	796.11
716.68	808.33
716.80	882.00
716.92	854.67
717.04	812.78
717.16	821.44
717.28	803.78
717.40	791.11
717.52	809.78
717.63	779.89
717.75	809.67
717.87	806.00
717.99	824.11
718.11	791.33
718.23	859.67
718.35	826.33
718.47	801.22
718.59	749.67
718.71	799.89
718.83	784.11
718.95	829.89
719.07	764.11
719.19	792.33
719.30	794.56
719.42	813.00
719.54	793.78
719.66	810.89
719.78	806.00
719.90	744.00
720.02	798.67
720.14	819.44
720.26	834.89
720.38	819.33
720.50	781.89
720.62	732.22
720.74	800.11
720.85	801.33
720.97	859.33
721.09	900.11
721.21	795.56
721.33	866.56
721.45	813.78
721.57	819.89
721.69	774.22
721.81	752.56
721.93	855.89
722.05	807.56
722.16	769.56
722.28	748.11
722.40	783.78
722.52	852.67
722.64	861.11
722.76	766.67
722.88	821.33
723.00	820.56
723.12	782.67
723.24	812.11
723.36	744.89
723.47	840.11
723.59	810.89
723.71	791.44
723.83	820.11
723.95	788.67
724.07	796.22
724.19	821.78
724.31	876.89
724.43	773.56
724.55	733.78
724.66	770.00
724.78	932.11
724.90	771.67
725.02	772.78
725.14	786.56
725.26	801.67
725.38	741.56
725.50	802.78
725.62	804.89
725.74	796.33
725.85	789.44
725.97	804.33
726.09	862.44
726.21	1140.44
726.33	836.89
726.45	794.00
726.57	770.89
726.69	806.22
726.81	804.33
726.92	798.22
727.04	809.33
727.16	823.89
727.28	792.89
727.40	786.33
727.52	812.33
727.64	919.67
727.76	882.00
727.88	826.56
727.99	760.00
728.11	767.22
728.23	796.56
728.35	785.33
728.47	785.89
728.59	790.22
728.71	806.11
728.83	807.67
728.94	830.00
729.06	891.67
729.18	858.78
729.30	832.11
729.42	812.56
729.54	878.22
729.66	884.11
729.78	803.00
729.90	810.56
730.01	782.22
730.13	730.89
730.25	792.67
730.37	792.89
730.49	820.78
730.61	824.78
730.73	817.78
730.84	836.44
730.96	822.33
731.08	816.78
731.20	812.89
731.32	816.00
731.44	952.89
731.56	802.67
731.68	769.89
731.79	813.00
731.91	774.67
732.03	784.44
732.15	795.89
732.27	770.33
732.39	784.67
732.51	831.78
732.62	777.33
732.74	792.00
732.86	852.67
732.98	818.33
733.10	800.33
733.22	813.22
733.34	831.22
733.45	750.89
733.57	797.67
733.69	760.89
733.81	788.33
733.93	809.89
734.05	738.11
734.17	793.67
734.28	799.67
734.40	800.44
734.52	782.56
734.64	789.78
734.76	877.44
734.88	808.00
735.00	760.67
735.11	800.67
735.23	848.00
735.35	789.78
735.47	746.33
735.59	833.56
735.71	798.00
735.83	813.11
735.94	827.44
736.06	806.89
736.18	860.56
736.30	848.11
736.42	823.00
736.54	820.78
736.65	830.67
736.77	945.56
736.89	856.00
737.01	809.11
737.13	907.22
737.25	734.89
737.36	765.56
737.48	790.67
737.60	805.00
737.72	779.22
737.84	797.78
737.96	847.22
738.08	804.67
738.19	890.78
738.31	793.22
738.43	813.78
738.55	804.67
738.67	805.00
738.79	774.78
738.90	805.00
739.02	818.89
739.14	785.67
739.26	806.00
739.38	805.11
739.50	811.56
739.61	802.89
739.73	803.89
739.85	806.56
739.97	814.33
740.09	864.56
740.20	759.78
740.32	812.33
740.44	827.78
740.56	763.78
740.68	801.11
740.80	804.67
740.91	796.78
741.03	841.44
741.15	831.56
741.27	796.44
741.39	842.78
741.51	812.78
741.62	846.22
741.74	806.89
741.86	803.22
741.98	789.67
742.10	813.56
742.21	815.89
742.33	808.67
742.45	777.00
742.57	860.00
742.69	798.56
742.80	836.33
742.92	794.44
743.04	798.22
743.16	790.56
743.28	853.11
743.40	764.00
743.51	776.44
743.63	771.78
743.75	806.56
743.87	802.22
743.99	825.44
744.10	803.56
744.22	804.44
744.34	782.11
744.46	825.56
744.58	821.78
744.69	742.00
744.81	808.44
744.93	765.78
745.05	768.00
745.17	877.11
745.28	877.33
745.40	828.78
745.52	809.33
745.64	818.11
745.76	843.11
745.87	789.67
745.99	777.33
746.11	807.89
746.23	776.44
746.35	800.89
746.46	779.44
746.58	904.78
746.70	820.78
746.82	815.56
746.94	799.33
747.05	771.78
747.17	756.00
747.29	745.44
747.41	791.00
747.53	919.78
747.64	789.78
747.76	852.78
747.88	858.22
748.00	851.22
748.12	813.11
748.23	800.00
748.35	817.78
748.47	845.22
748.59	848.33
748.70	783.11
748.82	765.78
748.94	770.22
749.06	785.33
749.18	798.33
749.29	779.89
749.41	818.44
749.53	806.00
749.65	795.33
749.76	837.78
749.88	797.11
750.00	817.56
750.12	842.89
750.24	817.33
750.35	808.22
750.47	768.00
750.59	831.44
750.71	801.00
750.82	837.44
750.94	775.11
751.06	794.11
751.18	778.89
751.30	836.44
751.41	839.44
751.53	840.11
751.65	783.56
751.77	789.11
751.88	814.56
752.00	844.44
752.12	760.89
752.24	857.56
752.35	836.11
752.47	838.44
752.59	848.78
752.71	886.22
752.83	792.00
752.94	869.33
753.06	786.56
753.18	811.78
753.30	781.00
753.41	742.33
753.53	789.44
753.65	789.89
753.77	848.11
753.88	781.33
754.00	813.56
754.12	812.89
754.24	868.56
754.35	783.89
754.47	751.22
754.59	829.00
754.71	831.00
754.82	803.00
754.94	790.89
755.06	856.00
755.18	824.11
755.29	812.78
755.41	792.89
755.53	831.56
755.65	781.00
755.76	812.78
755.88	811.33
756.00	869.11
756.12	788.78
756.23	718.22
756.35	778.78
756.47	844.67
756.59	786.11
756.70	783.44
756.82	787.67
756.94	788.00
757.06	817.56
757.17	818.44
757.29	800.56
757.41	757.33
757.53	822.22
757.64	807.33
757.76	807.22
757.88	824.00
758.00	829.44
758.11	795.00
758.23	763.44
758.35	822.44
758.47	766.67
758.58	823.78
758.70	765.11
758.82	787.67
758.94	770.56
759.05	810.56
759.17	759.22
759.29	793.67
759.40	863.89
759.52	786.00
759.64	795.22
759.76	816.89
759.87	827.00
759.99	824.78
760.11	788.11
760.23	809.89
760.34	841.67
760.46	826.33
760.58	795.33
760.70	805.00
760.81	847.11
760.93	814.33
761.05	832.44
761.16	818.78
761.28	791.56
761.40	787.33
761.52	774.11
761.63	857.11
761.75	831.11
761.87	790.00
761.98	760.11
762.10	832.89
762.22	810.78
762.34	838.56
762.45	788.56
762.57	833.56
762.69	920.67
762.81	800.78
762.92	835.11
763.04	764.22
763.16	831.89
763.27	841.56
763.39	792.89
763.51	834.00
763.63	827.89
763.74	785.11
763.86	758.22
763.98	769.44
764.09	790.33
764.21	818.22
764.33	770.22
764.44	785.11
764.56	813.33
764.68	778.22
764.80	803.11
764.91	746.22
765.03	865.89
765.15	807.67
765.26	803.44
765.38	777.44
765.50	838.00
765.62	809.11
765.73	801.11
765.85	816.67
765.97	759.78
766.08	804.67
766.20	816.67
766.32	815.78
766.43	847.33
766.55	832.00
766.67	800.89
766.79	809.33
766.90	771.89
767.02	745.78
767.14	764.00
767.25	765.78
767.37	894.78
767.49	827.22
767.60	802.89
767.72	860.00
767.84	833.11
767.95	788.33
768.07	773.00
768.19	827.44
768.31	831.67
768.42	813.56
768.54	800.22
768.66	804.44
768.77	838.67
768.89	804.11
769.01	781.33
769.12	828.44
769.24	818.11
769.36	767.56
769.47	770.67
769.59	766.89
769.71	824.11
769.82	802.22
769.94	786.56
770.06	765.00
770.17	844.00
770.29	809.78
770.41	841.56
770.53	824.56
770.64	765.56
770.76	807.44
770.88	828.22
770.99	835.33
771.11	777.78
771.23	822.67
771.34	812.11
771.46	894.67
771.58	869.89
771.69	834.78
771.81	811.44
771.93	847.11
772.04	777.33
772.16	837.11
772.28	815.11
772.39	852.00
772.51	805.89
772.63	827.44
772.74	798.11
772.86	798.22
772.98	916.89
773.09	780.89
773.21	788.56
773.33	824.00
773.44	829.89
773.56	807.11
773.68	807.00
773.79	850.22
773.91	792.00
774.03	810.44
774.14	800.00
774.26	857.00
774.38	774.33
774.49	761.33
774.61	804.67
774.73	809.56
774.84	790.89
774.96	778.22
775.08	810.44
775.19	822.89
775.31	858.78
775.43	817.00
775.54	787.22
775.66	760.11
775.77	849.56
775.89	775.78
776.01	837.22
776.12	849.11
776.24	821.67
776.36	765.67
776.47	783.33
776.59	819.44
776.71	852.89
776.82	745.22
776.94	761.67
777.06	792.22
777.17	870.33
777.29	773.56
777.41	780.56
777.52	829.67
777.64	819.11
777.75	836.44
777.87	753.44
777.99	789.78
778.10	848.11
778.22	795.22
778.34	816.89
778.45	798.78
778.57	852.22
778.69	843.56
778.80	819.78
778.92	905.00
779.04	830.11
779.15	807.00
779.27	850.56
779.38	837.33
779.50	861.56
779.62	761.00
779.73	803.44
779.85	751.56
779.97	915.78
780.08	815.11
780.20	808.33
780.31	835.56
780.43	845.44
780.55	791.78
780.66	818.11
780.78	830.56
780.90	905.22
781.01	788.11
781.13	806.67
781.25	801.78
781.36	856.89
781.48	787.78
781.59	805.56
781.71	837.89
781.83	831.78
781.94	781.67
782.06	790.67
782.18	848.11
782.29	805.78
782.41	762.11
782.52	850.00
782.64	853.89
782.76	823.22
782.87	828.22
782.99	805.22
783.10	932.22
783.22	940.89
783.34	809.78
783.45	817.67
783.57	810.11
783.69	789.78
783.80	822.56
783.92	844.33
784.03	807.67
784.15	785.33
784.27	802.33
784.38	778.44
784.50	816.00
784.61	815.89
784.73	791.78
784.85	797.11
784.96	791.89
785.08	858.00
785.19	856.11
785.31	797.00
785.43	773.44
785.54	775.11
785.66	839.22
785.77	827.56
785.89	835.89
786.01	767.22
786.12	803.44
786.24	819.67
786.35	882.33
786.47	819.67
786.59	788.56
786.70	773.11
786.82	821.78
786.93	828.67
787.05	804.67
787.17	829.44
787.28	802.89
787.40	825.89
787.51	836.56
787.63	831.11
787.75	770.67
787.86	821.00
787.98	840.78
788.09	807.56
788.21	826.78
788.33	840.22
788.44	830.11
788.56	786.78
788.67	833.89
788.79	794.56
788.91	811.00
789.02	791.78
789.14	800.44
789.25	897.44
789.37	846.89
789.48	793.11
789.60	820.67
789.72	783.33
789.83	835.89
789.95	818.11
790.06	764.44
790.18	782.00
790.30	844.00
790.41	824.22
790.53	795.11
790.64	770.33
790.76	775.44
790.87	801.67
790.99	811.67
791.11	817.44
791.22	790.44
791.34	810.33
791.45	841.56
791.57	842.11
791.68	802.67
791.80	790.78
791.92	841.89
792.03	793.56
792.15	767.44
792.26	791.44
792.38	763.11
792.49	830.44
792.61	799.56
792.73	819.22
792.84	810.22
792.96	906.11
793.07	805.00
793.19	1564.67
793.30	893.00
793.42	849.44
793.54	745.44
793.65	768.89
793.77	935.56
793.88	798.67
794.00	765.67
794.11	810.56
794.23	753.11
794.34	819.11
794.46	750.78
794.58	766.11
794.69	891.11
794.81	885.00
794.92	776.44
795.04	773.44
795.15	882.78
795.27	843.44
795.39	811.33
795.50	781.89
795.62	783.56
795.73	792.22
795.85	782.56
795.96	825.56
796.08	867.78
796.19	790.67
796.31	796.89
796.42	770.11
796.54	786.89
796.66	849.67
796.77	767.78
796.89	760.00
797.00	851.11
797.12	738.56
797.23	797.22
797.35	818.89
797.46	844.00
797.58	862.33
797.69	823.22
797.81	798.56
797.93	797.78
798.04	782.44
798.16	785.33
798.27	820.67
798.39	776.78
798.50	760.89
798.62	765.11
798.73	765.11
798.85	882.22
798.96	812.33
799.08	830.11
799.19	845.33
799.31	810.33
799.43	807.89
799.54	790.22
799.66	817.56
799.77	836.44
799.89	783.56
800.00	746.22
800.12	790.00
800.23	851.22
800.35	881.44
800.46	747.78
800.58	737.78
800.69	798.78
800.81	790.11
800.92	762.33
801.04	807.56
801.16	742.67
801.27	757.22
801.39	767.44
801.50	784.67
801.62	795.33
801.73	848.33
801.85	843.33
801.96	766.33
802.08	855.89
802.19	848.78
802.31	790.56
802.42	809.00
802.54	883.00
802.65	848.89
802.77	769.56
802.88	840.78
803.00	760.56
803.11	899.00
803.23	810.89
803.34	806.78
803.46	822.44
803.57	768.78
803.69	840.56
803.80	767.78
803.92	848.22
804.03	796.11
804.15	815.56
804.26	829.33
804.38	840.22
804.50	776.00
804.61	820.11
804.73	809.67
804.84	809.33
804.96	740.89
805.07	800.11
805.19	775.44
805.30	824.56
805.42	846.67
805.53	802.67
805.65	773.78
805.76	755.56
805.88	783.78
805.99	820.78
806.11	830.78
806.22	779.00
806.34	794.67
806.45	808.56
806.57	793.78
806.68	841.89
806.80	738.11
806.91	766.89
807.03	761.00
807.14	736.00
807.26	746.56
807.37	758.67
807.49	817.22
807.60	782.78
807.72	864.11
807.83	879.67
807.95	809.67
808.06	825.67
808.17	814.67
808.29	841.11
808.40	771.00
808.52	805.11
808.63	813.44
808.75	816.00
808.86	805.44
808.98	818.78
809.09	778.78
809.21	822.56
809.32	783.33
809.44	829.56
809.55	764.78
809.67	809.78
809.78	769.56
809.90	831.89
810.01	865.78
810.13	785.33
810.24	834.67
810.36	762.78
810.47	777.67
810.59	807.89
810.70	829.33
810.82	848.56
810.93	770.11
811.05	780.00
811.16	786.67
811.27	773.11
811.39	807.22
811.50	841.67
811.62	758.67
811.73	740.33
811.85	821.11
811.96	807.89
812.08	833.89
812.19	810.89
812.31	826.00
812.42	801.56
812.54	782.11
812.65	843.00
812.77	849.22
812.88	839.22
813.00	839.33
813.11	825.33
813.22	781.44
813.34	788.00
813.45	810.33
813.57	887.00
813.68	894.00
813.80	811.44
813.91	776.78
814.03	797.67
814.14	886.78
814.26	793.67
814.37	807.56
814.49	805.11
814.60	787.78
814.71	788.22
814.83	802.22
814.94	757.33
815.06	787.33
815.17	799.44
815.29	803.56
815.40	768.56
815.52	890.00
815.63	802.22
815.75	782.89
815.86	815.44
815.97	767.33
816.09	809.56
816.20	825.00
816.32	828.89
816.43	756.67
816.55	819.33
816.66	794.89
816.78	884.22
816.89	810.00
817.00	811.89
817.12	790.22
817.23	777.33
817.35	847.00
817.46	812.11
817.58	786.67
817.69	926.44
817.81	814.33
817.92	839.67
818.03	817.44
818.15	815.33
818.26	781.89
818.38	775.89
818.49	802.44
818.61	816.56
818.72	768.89
818.83	1638.67
818.95	915.89
819.06	786.00
819.18	798.11
819.29	815.44
819.41	814.78
819.52	825.22
819.64	816.44
819.75	786.67
819.86	766.00
819.98	792.89
820.09	832.22
820.21	810.33
820.32	780.78
820.44	819.44
820.55	871.78
820.66	790.33
820.78	838.11
820.89	805.44
821.01	832.44
821.12	813.89
821.23	824.89
821.35	795.44
821.46	850.44
821.58	812.33
821.69	800.78
821.81	782.56
821.92	867.22
822.03	810.33
822.15	827.67
822.26	774.78
822.38	783.44
822.49	828.11
822.61	814.11
822.72	823.56
822.83	858.56
822.95	806.78
823.06	815.78
823.18	859.56
823.29	881.67
823.40	837.22
823.52	807.00
823.63	771.00
823.75	897.11
823.86	812.00
823.97	762.89
824.09	844.33
824.20	778.44
824.32	826.67
824.43	804.11
824.55	845.11
824.66	903.44
824.77	809.67
824.89	831.00
825.00	874.11
825.12	818.67
825.23	837.33
825.34	769.56
825.46	776.78
825.57	845.11
825.69	797.89
825.80	744.56
825.91	788.56
826.03	759.56
826.14	830.33
826.26	778.22
826.37	811.33
826.48	797.89
826.60	815.67
826.71	782.89
826.83	818.67
826.94	830.56
827.05	861.44
827.17	851.11
827.28	800.78
827.39	793.67
827.51	776.22
827.62	810.22
827.74	812.67
827.85	804.44
827.96	790.56
828.08	804.89
828.19	905.67
828.31	800.78
828.42	755.44
828.53	826.33
828.65	861.67
828.76	865.22
828.87	831.78
828.99	781.44
