Wavelength (nm)	Intensity
377.35	811.00
377.48	601.00
377.62	621.00
377.75	613.00
377.88	809.00
378.02	774.00
378.15	797.00
378.28	780.00
378.41	861.00
378.55	825.00
378.68	801.00
378.81	774.00
378.95	805.00
379.08	801.00
379.21	755.00
379.35	825.00
379.48	814.00
379.61	899.00
379.74	824.00
379.88	807.00
380.01	881.00
380.14	942.00
380.28	876.00
380.41	796.00
380.54	846.00
380.68	842.00
380.81	782.00
380.94	863.00
381.07	893.00
381.21	892.00
381.34	831.00
381.47	759.00
381.61	955.00
381.74	837.00
381.87	784.00
382.00	844.00
382.14	920.00
382.27	867.00
382.40	795.00
382.54	885.00
382.67	897.00
382.80	796.00
382.93	817.00
383.07	830.00
383.20	830.00
383.33	867.00
383.47	801.00
383.60	787.00
383.73	968.00
383.86	862.00
384.00	825.00
384.13	825.00
384.26	872.00
384.40	898.00
384.53	838.00
384.66	881.00
384.79	861.00
384.93	821.00
385.06	842.00
385.19	852.00
385.33	962.00
385.46	853.00
385.59	806.00
385.72	854.00
385.86	797.00
385.99	824.00
386.12	841.00
386.25	811.00
386.39	890.00
386.52	902.00
386.65	827.00
386.79	833.00
386.92	812.00
387.05	904.00
387.18	786.00
387.32	819.00
387.45	872.00
387.58	858.00
387.71	838.00
387.85	824.00
387.98	857.00
388.11	875.00
388.25	851.00
388.38	827.00
388.51	880.00
388.64	900.00
388.78	822.00
388.91	814.00
389.04	830.00
389.17	946.00
389.31	841.00
389.44	879.00
389.57	887.00
389.70	859.00
389.84	826.00
389.97	839.00
390.10	830.00
390.24	873.00
390.37	838.00
390.50	833.00
390.63	909.00
390.77	843.00
390.90	853.00
391.03	858.00
391.16	804.00
391.30	835.00
391.43	836.00
391.56	832.00
391.69	818.00
391.83	898.00
391.96	858.00
392.09	825.00
392.22	935.00
392.36	872.00
392.49	817.00
392.62	843.00
392.75	861.00
392.89	906.00
393.02	803.00
393.15	809.00
393.28	797.00
393.42	937.00
393.55	804.00
393.68	829.00
393.81	786.00
393.95	830.00
394.08	835.00
394.21	834.00
394.34	900.00
394.48	892.00
394.61	898.00
394.74	876.00
394.87	894.00
395.01	880.00
395.14	893.00
395.27	833.00
395.40	949.00
395.54	954.00
395.67	866.00
395.80	844.00
395.93	884.00
396.07	833.00
396.20	821.00
396.33	766.00
396.46	841.00
396.59	864.00
396.73	840.00
396.86	817.00
396.99	906.00
397.12	872.00
397.26	872.00
397.39	858.00
397.52	1137.00
397.65	957.00
397.79	880.00
397.92	853.00
398.05	922.00
398.18	852.00
398.32	850.00
398.45	880.00
398.58	882.00
398.71	891.00
398.84	819.00
398.98	860.00
399.11	891.00
399.24	890.00
399.37	860.00
399.51	830.00
399.64	875.00
399.77	872.00
399.90	878.00
400.03	868.00
400.17	841.00
400.30	934.00
400.43	892.00
400.56	870.00
400.70	870.00
400.83	837.00
400.96	844.00
401.09	890.00
401.23	870.00
401.36	936.00
401.49	835.00
401.62	856.00
401.75	868.00
401.89	840.00
402.02	855.00
402.15	872.00
402.28	903.00
402.41	901.00
402.55	865.00
402.68	872.00
402.81	963.00
402.94	907.00
403.08	849.00
403.21	853.00
403.34	915.00
403.47	920.00
403.60	877.00
403.74	909.00
403.87	904.00
404.00	866.00
404.13	862.00
404.26	822.00
404.40	852.00
404.53	891.00
404.66	860.00
404.79	849.00
404.93	928.00
405.06	859.00
405.19	819.00
405.32	904.00
405.45	896.00
405.59	936.00
405.72	875.00
405.85	848.00
405.98	1048.00
406.11	858.00
406.25	847.00
406.38	865.00
406.51	918.00
406.64	868.00
406.77	839.00
406.91	846.00
407.04	907.00
407.17	869.00
407.30	888.00
407.43	883.00
407.57	949.00
407.70	919.00
407.83	854.00
407.96	899.00
408.09	855.00
408.23	980.00
408.36	872.00
408.49	883.00
408.62	1001.00
408.75	905.00
408.89	877.00
409.02	897.00
409.15	890.00
409.28	975.00
409.41	926.00
409.55	864.00
409.68	1001.00
409.81	913.00
409.94	863.00
410.07	899.00
410.20	916.00
410.34	882.00
410.47	916.00
410.60	909.00
410.73	922.00
410.86	864.00
411.00	897.00
411.13	860.00
411.26	885.00
411.39	899.00
411.52	917.00
411.66	892.00
411.79	886.00
411.92	867.00
412.05	888.00
412.18	892.00
412.31	922.00
412.45	942.00
412.58	935.00
412.71	867.00
412.84	928.00
412.97	968.00
413.11	900.00
413.24	910.00
413.37	939.00
413.50	1002.00
413.63	912.00
413.76	896.00
413.90	938.00
414.03	900.00
414.16	898.00
414.29	920.00
414.42	916.00
414.56	1018.00
414.69	907.00
414.82	903.00
414.95	910.00
415.08	931.00
415.21	910.00
415.35	930.00
415.48	844.00
415.61	948.00
415.74	972.00
415.87	859.00
416.00	925.00
416.14	1012.00
416.27	936.00
416.40	876.00
416.53	902.00
416.66	950.00
416.79	928.00
416.93	886.00
417.06	970.00
417.19	901.00
417.32	890.00
417.45	906.00
417.58	861.00
417.72	945.00
417.85	902.00
417.98	927.00
418.11	960.00
418.24	917.00
418.37	904.00
418.51	923.00
418.64	930.00
418.77	1001.00
418.90	931.00
419.03	878.00
419.16	925.00
419.29	962.00
419.43	888.00
419.56	877.00
419.69	1022.00
419.82	978.00
419.95	919.00
420.08	962.00
420.22	980.00
420.35	1047.00
420.48	987.00
420.61	943.00
420.74	880.00
420.87	956.00
421.00	878.00
421.14	911.00
421.27	949.00
421.40	1004.00
421.53	958.00
421.66	932.00
421.79	926.00
421.93	945.00
422.06	933.00
422.19	918.00
422.32	969.00
422.45	971.00
422.58	943.00
422.71	919.00
422.85	970.00
422.98	970.00
423.11	871.00
423.24	880.00
423.37	903.00
423.50	921.00
423.63	927.00
423.77	906.00
423.90	919.00
424.03	955.00
424.16	968.00
424.29	945.00
424.42	914.00
424.55	916.00
424.69	909.00
424.82	945.00
424.95	927.00
425.08	915.00
425.21	967.00
425.34	931.00
425.47	938.00
425.60	960.00
425.74	917.00
425.87	940.00
426.00	946.00
426.13	972.00
426.26	930.00
426.39	917.00
426.52	949.00
426.66	1031.00
426.79	977.00
426.92	918.00
427.05	1047.00
427.18	1038.00
427.31	955.00
427.44	956.00
427.57	928.00
427.71	964.00
427.84	915.00
427.97	958.00
428.10	1023.00
428.23	969.00
428.36	923.00
428.49	873.00
428.62	1075.00
428.76	1062.00
428.89	980.00
429.02	910.00
429.15	956.00
429.28	1046.00
429.41	953.00
429.54	968.00
429.67	964.00
429.81	985.00
429.94	981.00
430.07	966.00
430.20	1017.00
430.33	1044.00
430.46	944.00
430.59	924.00
430.72	979.00
430.85	926.00
430.99	985.00
431.12	935.00
431.25	1010.00
431.38	1048.00
431.51	971.00
431.64	983.00
431.77	1055.00
431.90	1057.00
432.03	978.00
432.17	943.00
432.30	979.00
432.43	1013.00
432.56	989.00
432.69	1008.00
432.82	1021.00
432.95	1030.00
433.08	981.00
433.21	981.00
433.35	978.00
433.48	995.00
433.61	940.00
433.74	993.00
433.87	978.00
434.00	1006.00
434.13	967.00
434.26	1031.00
434.39	1000.00
434.53	1006.00
434.66	973.00
434.79	985.00
434.92	978.00
435.05	1050.00
435.18	966.00
435.31	1021.00
435.44	1061.00
435.57	1002.00
435.70	988.00
435.84	971.00
435.97	1055.00
436.10	1081.00
436.23	979.00
436.36	963.00
436.49	979.00
436.62	1023.00
436.75	992.00
436.88	1033.00
437.01	970.00
437.14	967.00
437.28	960.00
437.41	989.00
437.54	1063.00
437.67	1032.00
437.80	983.00
437.93	959.00
438.06	1126.00
438.19	1048.00
438.32	997.00
438.45	994.00
438.58	1044.00
438.72	1091.00
438.85	1039.00
438.98	1016.00
439.11	1030.00
439.24	1102.00
439.37	1095.00
439.50	1058.00
439.63	1070.00
439.76	1004.00
439.89	988.00
440.02	990.00
440.15	1039.00
440.29	1089.00
440.42	1020.00
440.55	1023.00
440.68	1096.00
440.81	1146.00
440.94	1026.00
441.07	1025.00
441.20	1105.00
441.33	1055.00
441.46	1007.00
441.59	994.00
441.72	1036.00
441.85	1038.00
441.99	1066.00
442.12	1071.00
442.25	1128.00
442.38	1051.00
442.51	1022.00
442.64	983.00
442.77	1052.00
442.90	1018.00
443.03	989.00
443.16	1014.00
443.29	1040.00
443.42	1114.00
443.55	1015.00
443.68	1031.00
443.82	986.00
443.95	1013.00
444.08	1054.00
444.21	1036.00
444.34	1023.00
444.47	1042.00
444.60	1049.00
444.73	1058.00
444.86	1044.00
444.99	1141.00
445.12	1098.00
445.25	1054.00
445.38	1081.00
445.51	1091.00
445.64	1064.00
445.78	1055.00
445.91	994.00
446.04	1187.00
446.17	1102.00
446.30	1014.00
446.43	1067.00
446.56	1065.00
446.69	1030.00
446.82	1036.00
446.95	1123.00
447.08	1137.00
447.21	1081.00
447.34	1064.00
447.47	1105.00
447.60	1102.00
447.73	1084.00
447.86	1113.00
447.99	1114.00
448.13	1107.00
448.26	1110.00
448.39	1070.00
448.52	1111.00
448.65	1129.00
448.78	1084.00
448.91	1094.00
449.04	1107.00
449.17	1074.00
449.30	1116.00
449.43	1095.00
449.56	1085.00
449.69	1172.00
449.82	1122.00
449.95	1054.00
450.08	1146.00
450.21	1130.00
450.34	1095.00
450.47	1087.00
450.60	1136.00
450.73	1115.00
450.87	1100.00
451.00	1119.00
451.13	1142.00
451.26	1262.00
451.39	1106.00
451.52	1139.00
451.65	1109.00
451.78	1118.00
451.91	1091.00
452.04	1089.00
452.17	1211.00
452.30	1189.00
452.43	1091.00
452.56	1108.00
452.69	1181.00
452.82	1078.00
452.95	1162.00
453.08	1108.00
453.21	1084.00
453.34	1168.00
453.47	1127.00
453.60	1173.00
453.73	1236.00
453.86	1179.00
453.99	1145.00
454.12	1134.00
454.25	1132.00
454.38	1167.00
454.52	1147.00
454.65	1147.00
454.78	1159.00
454.91	1108.00
455.04	1131.00
455.17	1098.00
455.30	1124.00
455.43	1211.00
455.56	1145.00
455.69	1124.00
455.82	1161.00
455.95	1172.00
456.08	1125.00
456.21	1120.00
456.34	1113.00
456.47	1106.00
456.60	1154.00
456.73	1122.00
456.86	1161.00
456.99	1201.00
457.12	1141.00
457.25	1169.00
457.38	1247.00
457.51	1218.00
457.64	1227.00
457.77	1178.00
457.90	1179.00
458.03	1189.00
458.16	1161.00
458.29	1179.00
458.42	1192.00
458.55	1141.00
458.68	1182.00
458.81	1194.00
458.94	1238.00
459.07	1282.00
459.20	1157.00
459.33	1174.00
459.46	1259.00
459.59	1289.00
459.72	1277.00
459.85	1191.00
459.98	1261.00
460.11	1238.00
460.24	1230.00
460.37	1170.00
460.50	1253.00
460.63	1229.00
460.76	1207.00
460.89	1241.00
461.02	1260.00
461.15	1274.00
461.28	1250.00
461.41	1246.00
461.54	1319.00
461.67	1214.00
461.80	1242.00
461.93	1270.00
462.06	1286.00
462.19	1326.00
462.32	1243.00
462.45	1238.00
462.58	1288.00
462.71	1252.00
462.84	1257.00
462.97	1208.00
463.10	1271.00
463.23	1275.00
463.36	1295.00
463.49	1279.00
463.62	1226.00
463.75	1305.00
463.88	1276.00
464.01	1310.00
464.14	1255.00
464.27	1394.00
464.40	1305.00
464.53	1313.00
464.66	1322.00
464.79	1331.00
464.92	1326.00
465.05	1276.00
465.18	1280.00
465.31	1305.00
465.44	1323.00
465.57	1301.00
465.70	1301.00
465.83	1440.00
465.96	1335.00
466.09	1332.00
466.22	1383.00
466.35	1377.00
466.48	1309.00
466.61	1310.00
466.74	1326.00
466.87	1376.00
467.00	1383.00
467.13	1362.00
467.26	1363.00
467.39	1322.00
467.52	1309.00
467.65	1347.00
467.78	1431.00
467.91	1376.00
468.04	1385.00
468.17	1343.00
468.30	1386.00
468.43	1346.00
468.56	1369.00
468.69	1416.00
468.82	1450.00
468.95	1373.00
469.08	1375.00
469.21	1392.00
469.34	1444.00
469.47	1524.00
469.60	1495.00
469.73	1425.00
469.86	1461.00
469.99	1469.00
470.11	1404.00
470.24	1415.00
470.37	1476.00
470.50	1470.00
470.63	1423.00
470.76	1452.00
470.89	1526.00
471.02	1563.00
471.15	1446.00
471.28	1470.00
471.41	1562.00
471.54	1531.00
471.67	1474.00
471.80	1427.00
471.93	1554.00
472.06	1512.00
472.19	1502.00
472.32	1478.00
472.45	1621.00
472.58	1560.00
472.71	1523.00
472.84	1518.00
472.97	1513.00
473.10	1506.00
473.23	1591.00
473.36	1507.00
473.49	1613.00
473.62	1598.00
473.74	1570.00
473.87	1588.00
474.00	1565.00
474.13	1551.00
474.26	1606.00
474.39	1636.00
474.52	1586.00
474.65	1584.00
474.78	1599.00
474.91	1572.00
475.04	1642.00
475.17	1736.00
475.30	1628.00
475.43	1637.00
475.56	1649.00
475.69	1616.00
475.82	1667.00
475.95	1643.00
476.08	1712.00
476.21	1646.00
476.34	1700.00
476.46	1692.00
476.59	1739.00
476.72	1670.00
476.85	1665.00
476.98	1681.00
477.11	1751.00
477.24	1681.00
477.37	1646.00
477.50	1684.00
477.63	1713.00
477.76	1714.00
477.89	1673.00
478.02	1713.00
478.15	1735.00
478.28	1722.00
478.41	1777.00
478.54	1749.00
478.66	1836.00
478.79	1770.00
478.92	1770.00
479.05	1794.00
479.18	1774.00
479.31	1777.00
479.44	1778.00
479.57	1766.00
479.70	1796.00
479.83	1838.00
479.96	1813.00
480.09	1835.00
480.22	1978.00
480.35	1979.00
480.48	1900.00
480.60	1873.00
480.73	1830.00
480.86	1896.00
480.99	1866.00
481.12	1896.00
481.25	1891.00
481.38	1938.00
481.51	1882.00
481.64	1917.00
481.77	1945.00
481.90	1915.00
482.03	1916.00
482.16	1905.00
482.29	1995.00
482.41	1958.00
482.54	1978.00
482.67	1929.00
482.80	1942.00
482.93	1997.00
483.06	1939.00
483.19	2028.00
483.32	2014.00
483.45	2006.00
483.58	2005.00
483.71	2042.00
483.84	2074.00
483.97	2038.00
484.09	2033.00
484.22	2012.00
484.35	2011.00
484.48	1987.00
484.61	2041.00
484.74	2034.00
484.87	2058.00
485.00	2021.00
485.13	2090.00
485.26	2072.00
485.39	2106.00
485.52	2098.00
485.64	2159.00
485.77	2138.00
485.90	2196.00
486.03	2076.00
486.16	2158.00
486.29	2117.00
486.42	2147.00
486.55	2171.00
486.68	2150.00
486.81	2226.00
486.94	2202.00
487.06	2172.00
487.19	2174.00
487.32	2209.00
487.45	2174.00
487.58	2163.00
487.71	2170.00
487.84	2141.00
487.97	2237.00
488.10	2267.00
488.23	2193.00
488.35	2181.00
488.48	2199.00
488.61	2168.00
488.74	2227.00
488.87	2258.00
489.00	2271.00
489.13	2378.00
489.26	2332.00
489.39	2281.00
489.52	2321.00
489.64	2302.00
489.77	2299.00
489.90	2300.00
490.03	2280.00
490.16	2259.00
490.29	2284.00
490.42	2260.00
490.55	2341.00
490.68	2316.00
490.81	2306.00
490.93	2321.00
491.06	2392.00
491.19	2390.00
491.32	2382.00
491.45	2393.00
491.58	2326.00
491.71	2417.00
491.84	2340.00
491.97	2371.00
492.09	2471.00
492.22	2431.00
492.35	2400.00
492.48	2447.00
492.61	2438.00
492.74	2426.00
492.87	2474.00
493.00	2431.00
493.12	2396.00
493.25	2419.00
493.38	2402.00
493.51	2415.00
493.64	2411.00
493.77	2456.00
493.90	2488.00
494.03	2501.00
494.16	2561.00
494.28	2549.00
494.41	2475.00
494.54	2505.00
494.67	2594.00
494.80	2580.00
494.93	2532.00
495.06	2557.00
495.19	2578.00
495.31	2531.00
495.44	2494.00
495.57	2539.00
495.70	2600.00
495.83	2563.00
495.96	2515.00
496.09	2557.00
496.22	2660.00
496.34	2668.00
496.47	2530.00
496.60	2601.00
496.73	2636.00
496.86	2643.00
496.99	2584.00
497.12	2611.00
497.24	2584.00
497.37	2631.00
497.50	2610.00
497.63	2589.00
497.76	2618.00
497.89	2663.00
498.02	2671.00
498.15	2618.00
498.27	2653.00
498.40	2738.00
498.53	2750.00
498.66	2712.00
498.79	2722.00
498.92	2666.00
499.05	2702.00
499.17	2709.00
499.30	2714.00
499.43	2794.00
499.56	2772.00
499.69	2664.00
499.82	2749.00
499.95	2752.00
500.07	2729.00
500.20	2744.00
500.33	2759.00
500.46	2893.00
500.59	2757.00
500.72	2797.00
500.85	2837.00
500.97	2778.00
501.10	2838.00
501.23	2780.00
501.36	2774.00
501.49	2874.00
501.62	2844.00
501.75	2821.00
501.87	2839.00
502.00	2727.00
502.13	2822.00
502.26	2814.00
502.39	2785.00
502.52	2812.00
502.64	2784.00
502.77	2833.00
502.90	2900.00
503.03	2885.00
503.16	2866.00
503.29	2842.00
503.42	2877.00
503.54	2873.00
503.67	2933.00
503.80	2902.00
503.93	2957.00
504.06	2857.00
504.19	2919.00
504.31	2970.00
504.44	2949.00
504.57	2985.00
504.70	2979.00
504.83	2882.00
504.96	2977.00
505.08	2932.00
505.21	2977.00
505.34	3025.00
505.47	3024.00
505.60	3003.00
505.73	3039.00
505.85	3025.00
505.98	3100.00
506.11	3042.00
506.24	2989.00
506.37	3018.00
506.50	3041.00
506.62	3091.00
506.75	3026.00
506.88	2974.00
507.01	3057.00
507.14	3021.00
507.27	3033.00
507.39	2970.00
507.52	3036.00
507.65	3057.00
507.78	3058.00
507.91	3045.00
508.04	3138.00
508.16	3114.00
508.29	3095.00
508.42	3090.00
508.55	3073.00
508.68	3068.00
508.81	3112.00
508.93	3099.00
509.06	3105.00
509.19	3169.00
509.32	3198.00
509.45	3119.00
509.57	3167.00
509.70	3126.00
509.83	3202.00
509.96	3122.00
510.09	3166.00
510.22	3142.00
510.34	3169.00
510.47	3185.00
510.60	3278.00
510.73	3230.00
510.86	3254.00
510.98	3193.00
511.11	3184.00
511.24	3292.00
511.37	3278.00
511.50	3228.00
511.63	3229.00
511.75	3214.00
511.88	3220.00
512.01	3264.00
512.14	3256.00
512.27	3295.00
512.39	3309.00
512.52	3244.00
512.65	3290.00
512.78	3242.00
512.91	3256.00
513.03	3323.00
513.16	3357.00
513.29	3310.00
513.42	3306.00
513.55	3256.00
513.67	3335.00
513.80	3272.00
513.93	3274.00
514.06	3296.00
514.19	3368.00
514.31	3360.00
514.44	3381.00
514.57	3381.00
514.70	3404.00
514.83	3447.00
514.95	3338.00
515.08	3377.00
515.21	3413.00
515.34	3371.00
515.47	3411.00
515.59	3392.00
515.72	3427.00
515.85	3390.00
515.98	3484.00
516.11	3411.00
516.23	3512.00
516.36	3500.00
516.49	3480.00
516.62	3477.00
516.75	3520.00
516.87	3527.00
517.00	3454.00
517.13	3492.00
517.26	3539.00
517.39	3497.00
517.51	3412.00
517.64	3502.00
517.77	3537.00
517.90	3478.00
518.02	3522.00
518.15	3481.00
518.28	3415.00
518.41	3490.00
518.54	3499.00
518.66	3559.00
518.79	3524.00
518.92	3513.00
519.05	3545.00
519.18	3567.00
519.30	3600.00
519.43	3511.00
519.56	3530.00
519.69	3589.00
519.81	3664.00
519.94	3538.00
520.07	3508.00
520.20	3598.00
520.33	3647.00
520.45	3712.00
520.58	3633.00
520.71	3646.00
520.84	3656.00
520.96	3622.00
521.09	3665.00
521.22	3584.00
521.35	3686.00
521.48	3714.00
521.60	3668.00
521.73	3643.00
521.86	3745.00
521.99	3739.00
522.11	3690.00
522.24	3686.00
522.37	3722.00
522.50	3712.00
522.62	3755.00
522.75	3616.00
522.88	3686.00
523.01	3682.00
523.14	3729.00
523.26	3724.00
523.39	3762.00
523.52	3702.00
523.65	3769.00
523.77	3790.00
523.90	3756.00
524.03	3699.00
524.16	3664.00
524.28	3728.00
524.41	3688.00
524.54	3760.00
524.67	3704.00
524.79	3761.00
524.92	3832.00
525.05	3830.00
525.18	3768.00
525.31	3847.00
525.43	3730.00
525.56	3898.00
525.69	3813.00
525.82	3721.00
525.94	3839.00
526.07	3846.00
526.20	3881.00
526.33	3846.00
526.45	3983.00
526.58	3887.00
526.71	3846.00
526.84	3801.00
526.96	3865.00
527.09	3838.00
527.22	3809.00
527.35	3869.00
527.47	3801.00
527.60	3911.00
527.73	3799.00
527.86	3877.00
527.98	3929.00
528.11	3911.00
528.24	3862.00
528.37	3873.00
528.49	3818.00
528.62	3880.00
528.75	3926.00
528.88	3894.00
529.00	3964.00
529.13	3949.00
529.26	3928.00
529.39	3947.00
529.51	4076.00
529.64	3991.00
529.77	3899.00
529.90	3892.00
530.02	3927.00
530.15	3890.00
530.28	3867.00
530.40	3924.00
530.53	3942.00
530.66	3925.00
530.79	3942.00
530.91	3938.00
531.04	3923.00
531.17	3969.00
531.30	4015.00
531.42	3993.00
531.55	4003.00
531.68	4044.00
531.81	3958.00
531.93	3966.00
532.06	4001.00
532.19	3956.00
532.31	4058.00
532.44	4027.00
532.57	4066.00
532.70	3989.00
532.82	4070.00
532.95	4064.00
533.08	4114.00
533.21	4075.00
533.33	4020.00
533.46	4074.00
533.59	4014.00
533.71	4144.00
533.84	4049.00
533.97	4044.00
534.10	4007.00
534.22	4050.00
534.35	4068.00
534.48	4069.00
534.61	4133.00
534.73	4053.00
534.86	4054.00
534.99	4146.00
535.11	4164.00
535.24	4092.00
535.37	4063.00
535.50	4029.00
535.62	4081.00
535.75	4147.00
535.88	4123.00
536.00	4077.00
536.13	4102.00
536.26	4138.00
536.39	4186.00
536.51	4101.00
536.64	4191.00
536.77	4139.00
536.89	4142.00
537.02	4232.00
537.15	4229.00
537.28	4146.00
537.40	4218.00
537.53	4197.00
537.66	4218.00
537.78	4203.00
537.91	4157.00
538.04	4216.00
538.17	4226.00
538.29	4200.00
538.42	4318.00
538.55	4292.00
538.67	4273.00
538.80	4225.00
538.93	4282.00
539.05	4260.00
539.18	4310.00
539.31	4305.00
539.44	4277.00
539.56	4214.00
539.69	4291.00
539.82	4270.00
539.94	4256.00
540.07	4249.00
540.20	4346.00
540.32	4276.00
540.45	4290.00
540.58	4306.00
540.71	4376.00
540.83	4254.00
540.96	4296.00
541.09	4337.00
541.21	4391.00
541.34	4341.00
541.47	4321.00
541.59	4370.00
541.72	4386.00
541.85	4492.00
541.98	4423.00
542.10	4409.00
542.23	4376.00
542.36	4497.00
542.48	4379.00
542.61	4364.00
542.74	4348.00
542.86	4396.00
542.99	4381.00
543.12	4380.00
543.24	4473.00
543.37	4343.00
543.50	4401.00
543.62	4433.00
543.75	4425.00
543.88	4385.00
544.01	4412.00
544.13	4443.00
544.26	4446.00
544.39	4405.00
544.51	4471.00
544.64	4397.00
544.77	4449.00
544.89	4436.00
545.02	4474.00
545.15	4473.00
545.27	4542.00
545.40	4533.00
545.53	4492.00
545.65	4504.00
545.78	4449.00
545.91	4461.00
546.03	4423.00
546.16	4481.00
546.29	4466.00
546.41	4454.00
546.54	4506.00
546.67	4490.00
546.79	4558.00
546.92	4588.00
547.05	4520.00
547.17	4525.00
547.30	4518.00
547.43	4552.00
547.56	4498.00
547.68	4551.00
547.81	4536.00
547.94	4560.00
548.06	4611.00
548.19	4544.00
548.32	4625.00
548.44	4528.00
548.57	4563.00
548.70	4596.00
548.82	4610.00
548.95	4561.00
549.08	4627.00
549.20	4573.00
549.33	4675.00
549.45	4588.00
549.58	4569.00
549.71	4550.00
549.83	4695.00
549.96	4571.00
550.09	4621.00
550.21	4608.00
550.34	4624.00
550.47	4607.00
550.59	4575.00
550.72	4552.00
550.85	4660.00
550.97	4707.00
551.10	4642.00
551.23	4644.00
551.35	4768.00
551.48	4697.00
551.61	4640.00
551.73	4649.00
551.86	4767.00
551.99	4761.00
552.11	4692.00
552.24	4657.00
552.37	4678.00
552.49	4688.00
552.62	4696.00
552.75	4734.00
552.87	4678.00
553.00	4714.00
553.12	4697.00
553.25	4688.00
553.38	4774.00
553.50	4822.00
553.63	4795.00
553.76	4717.00
553.88	4831.00
554.01	4733.00
554.14	4726.00
554.26	4776.00
554.39	4869.00
554.52	4793.00
554.64	4739.00
554.77	4793.00
554.89	4842.00
555.02	4832.00
555.15	4863.00
555.27	4809.00
555.40	4860.00
555.53	4846.00
555.65	4795.00
555.78	4762.00
555.91	4893.00
556.03	4884.00
556.16	4819.00
556.29	4821.00
556.41	4940.00
556.54	4964.00
556.66	4890.00
556.79	4824.00
556.92	4866.00
557.04	4886.00
557.17	4837.00
557.30	4891.00
557.42	4920.00
557.55	4938.00
557.67	4912.00
557.80	4922.00
557.93	4888.00
558.05	4963.00
558.18	4898.00
558.31	4891.00
558.43	5004.00
558.56	5008.00
558.68	4910.00
558.81	4933.00
558.94	4981.00
559.06	5091.00
559.19	5016.00
559.32	4953.00
559.44	4941.00
559.57	4924.00
559.69	4933.00
559.82	4952.00
559.95	4952.00
560.07	4969.00
560.20	4953.00
560.33	4985.00
560.45	5015.00
560.58	5015.00
560.70	5047.00
560.83	4975.00
560.96	4966.00
561.08	5026.00
561.21	5075.00
561.33	5058.00
561.46	4988.00
561.59	5071.00
561.71	5021.00
561.84	5054.00
561.97	5076.00
562.09	5123.00
562.22	5061.00
562.34	5088.00
562.47	5127.00
562.60	5125.00
562.72	5075.00
562.85	5143.00
562.97	5126.00
563.10	5099.00
563.23	5099.00
563.35	5089.00
563.48	5110.00
563.60	5132.00
563.73	5121.00
563.86	5089.00
563.98	5093.00
564.11	5145.00
564.23	5180.00
564.36	5212.00
564.49	5167.00
564.61	5165.00
564.74	5196.00
564.86	5218.00
564.99	5247.00
565.12	5205.00
565.24	5255.00
565.37	5252.00
565.49	5235.00
565.62	5244.00
565.75	5227.00
565.87	5251.00
566.00	5339.00
566.12	5216.00
566.25	5205.00
566.38	5253.00
566.50	5196.00
566.63	5256.00
566.75	5277.00
566.88	5181.00
567.01	5174.00
567.13	5204.00
567.26	5245.00
567.38	5221.00
567.51	5300.00
567.64	5229.00
567.76	5316.00
567.89	5222.00
568.01	5230.00
568.14	5183.00
568.26	5309.00
568.39	5308.00
568.52	5227.00
568.64	5290.00
568.77	5303.00
568.89	5287.00
569.02	5308.00
569.15	5255.00
569.27	5257.00
569.40	5311.00
569.52	5340.00
569.65	5326.00
569.77	5307.00
569.90	5249.00
570.03	5244.00
570.15	5346.00
570.28	5284.00
570.40	5304.00
570.53	5314.00
570.66	5392.00
570.78	5304.00
570.91	5294.00
571.03	5276.00
571.16	5300.00
571.28	5290.00
571.41	5267.00
571.54	5270.00
571.66	5215.00
571.79	5324.00
571.91	5293.00
572.04	5276.00
572.16	5342.00
572.29	5419.00
572.42	5322.00
572.54	5369.00
572.67	5362.00
572.79	5373.00
572.92	5346.00
573.04	5329.00
573.17	5345.00
573.29	5348.00
573.42	5314.00
573.55	5429.00
573.67	5353.00
573.80	5396.00
573.92	5349.00
574.05	5311.00
574.17	5356.00
574.30	5369.00
574.43	5334.00
574.55	5317.00
574.68	5369.00
574.80	5346.00
574.93	5341.00
575.05	5405.00
575.18	5346.00
575.30	5393.00
575.43	5384.00
575.56	5423.00
575.68	5393.00
575.81	5351.00
575.93	5326.00
576.06	5371.00
576.18	5425.00
576.31	5369.00
576.43	5349.00
576.56	5475.00
576.69	5399.00
576.81	5416.00
576.94	5397.00
577.06	5394.00
577.19	5449.00
577.31	5439.00
577.44	5430.00
577.56	5485.00
577.69	5431.00
577.82	5480.00
577.94	5382.00
578.07	5354.00
578.19	5407.00
578.32	5480.00
578.44	5437.00
578.57	5432.00
578.69	5448.00
578.82	5443.00
578.94	5452.00
579.07	5459.00
579.19	5492.00
579.32	5437.00
579.45	5397.00
579.57	5421.00
579.70	5386.00
579.82	5441.00
579.95	5409.00
580.07	5484.00
580.20	5413.00
580.32	5544.00
580.45	5471.00
580.57	5500.00
580.70	5494.00
580.82	5450.00
580.95	5519.00
581.08	5362.00
581.20	5542.00
581.33	5424.00
581.45	5429.00
581.58	5431.00
581.70	5436.00
581.83	5364.00
581.95	5479.00
582.08	5495.00
582.20	5424.00
582.33	5441.00
582.45	5422.00
582.58	5456.00
582.70	5457.00
582.83	5444.00
582.95	5465.00
583.08	5491.00
583.21	5476.00
583.33	5498.00
583.46	5470.00
583.58	5440.00
583.71	5458.00
583.83	5494.00
583.96	5484.00
584.08	5538.00
584.21	5510.00
584.33	5500.00
584.46	5431.00
584.58	5385.00
584.71	5461.00
584.83	5491.00
584.96	5522.00
585.08	5532.00
585.21	5514.00
585.33	5533.00
585.46	5553.00
585.58	5497.00
585.71	5511.00
585.83	5540.00
585.96	5525.00
586.08	5497.00
586.21	5538.00
586.33	5560.00
586.46	5460.00
586.59	5565.00
586.71	5489.00
586.84	5564.00
586.96	5530.00
587.09	5459.00
587.21	5444.00
587.34	5552.00
587.46	5514.00
587.59	5432.00
587.71	5491.00
587.84	5496.00
587.96	5522.00
588.09	5500.00
588.21	5505.00
588.34	5544.00
588.46	5532.00
588.59	5499.00
588.71	5528.00
588.84	5514.00
588.96	5550.00
589.09	5552.00
589.21	5542.00
589.34	5545.00
589.46	5505.00
589.59	5504.00
589.71	5532.00
589.84	5479.00
589.96	5466.00
590.09	5527.00
590.21	5538.00
590.34	5569.00
590.46	5517.00
590.59	5492.00
590.71	5515.00
590.84	5532.00
590.96	5545.00
591.09	5561.00
591.21	5528.00
591.34	5515.00
591.46	5529.00
591.59	5590.00
591.71	5575.00
591.83	5540.00
591.96	5482.00
592.08	5595.00
592.21	5578.00
592.33	5625.00
592.46	5537.00
592.58	5587.00
592.71	5634.00
592.83	5642.00
592.96	5590.00
593.08	5600.00
593.21	5531.00
593.33	5471.00
593.46	5509.00
593.58	5557.00
593.71	5545.00
593.83	5621.00
593.96	5479.00
594.08	5579.00
594.21	5602.00
594.33	5560.00
594.46	5488.00
594.58	5470.00
594.71	5478.00
594.83	5581.00
594.96	5519.00
595.08	5677.00
595.20	5608.00
595.33	5634.00
595.45	5512.00
595.58	5715.00
595.70	5588.00
595.83	5558.00
595.95	5549.00
596.08	5557.00
596.20	5533.00
596.33	5522.00
596.45	5481.00
596.58	5557.00
596.70	5570.00
596.83	5534.00
596.95	5580.00
597.08	5606.00
597.20	5509.00
597.32	5564.00
597.45	5564.00
597.57	5608.00
597.70	5613.00
597.82	5553.00
597.95	5578.00
598.07	5549.00
598.20	5651.00
598.32	5547.00
598.45	5622.00
598.57	5684.00
598.70	5621.00
598.82	5606.00
598.94	5517.00
599.07	5632.00
599.19	5592.00
599.32	5581.00
599.44	5527.00
599.57	5605.00
599.69	5633.00
599.82	5597.00
599.94	5536.00
600.07	5558.00
600.19	5554.00
600.31	5550.00
600.44	5605.00
600.56	5714.00
600.69	5681.00
600.81	5655.00
600.94	5596.00
601.06	5654.00
601.19	5627.00
601.31	5657.00
601.44	5596.00
601.56	5705.00
601.68	5682.00
601.81	5657.00
601.93	5594.00
602.06	5646.00
602.18	5556.00
602.31	5576.00
602.43	5635.00
602.56	5604.00
602.68	5561.00
602.80	5644.00
602.93	5633.00
603.05	5574.00
603.18	5622.00
603.30	5566.00
603.43	5582.00
603.55	5596.00
603.68	5612.00
603.80	5621.00
603.92	5641.00
604.05	5627.00
604.17	5568.00
604.30	5603.00
604.42	5573.00
604.55	5658.00
604.67	5609.00
604.79	5580.00
604.92	5588.00
605.04	5649.00
605.17	5624.00
605.29	5598.00
605.42	5598.00
605.54	5707.00
605.66	5594.00
605.79	5661.00
605.91	5614.00
606.04	5652.00
606.16	5586.00
606.29	5650.00
606.41	5588.00
606.53	5679.00
606.66	5591.00
606.78	5650.00
606.91	5593.00
607.03	5647.00
607.16	5619.00
607.28	5600.00
607.40	5626.00
607.53	5691.00
607.65	5580.00
607.78	5591.00
607.90	5674.00
608.03	5707.00
608.15	5613.00
608.27	5640.00
608.40	5602.00
608.52	5638.00
608.65	5638.00
608.77	5667.00
608.89	5592.00
609.02	5665.00
609.14	5666.00
609.27	5646.00
609.39	5680.00
609.52	5579.00
609.64	5566.00
609.76	5628.00
609.89	5602.00
610.01	5670.00
610.14	5648.00
610.26	5626.00
610.38	5623.00
610.51	5718.00
610.63	5624.00
610.76	5642.00
610.88	5689.00
611.01	5682.00
611.13	5770.00
611.25	5760.00
611.38	5641.00
611.50	5663.00
611.63	5653.00
611.75	5649.00
611.87	5699.00
612.00	5626.00
612.12	5697.00
612.25	5646.00
612.37	5627.00
612.49	5729.00
612.62	5708.00
612.74	5734.00
612.87	5680.00
612.99	5677.00
613.11	5565.00
613.24	5615.00
613.36	5639.00
613.49	5639.00
613.61	5653.00
613.73	5685.00
613.86	5695.00
613.98	5612.00
614.11	5735.00
614.23	5726.00
614.35	5672.00
614.48	5683.00
614.60	5673.00
614.72	5635.00
614.85	5641.00
614.97	5638.00
615.10	5706.00
615.22	5638.00
615.34	5648.00
615.47	5676.00
615.59	5604.00
615.72	5662.00
615.84	5646.00
615.96	5598.00
616.09	5688.00
616.21	5697.00
616.34	5660.00
616.46	5589.00
616.58	5642.00
616.71	5646.00
616.83	5605.00
616.95	5655.00
617.08	5634.00
617.20	5622.00
617.33	5585.00
617.45	5641.00
617.57	5716.00
617.70	5639.00
617.82	5639.00
617.95	5623.00
618.07	5693.00
618.19	5631.00
618.32	5672.00
618.44	5663.00
618.56	5652.00
618.69	5619.00
618.81	5556.00
618.94	5702.00
619.06	5607.00
619.18	5697.00
619.31	5611.00
619.43	5597.00
619.55	5666.00
619.68	5678.00
619.80	5605.00
619.92	5642.00
620.05	5762.00
620.17	5688.00
620.30	5606.00
620.42	5634.00
620.54	5667.00
620.67	5624.00
620.79	5688.00
620.91	5661.00
621.04	5649.00
621.16	5583.00
621.29	5617.00
621.41	5545.00
621.53	5650.00
621.66	5582.00
621.78	5590.00
621.90	5736.00
622.03	5731.00
622.15	5630.00
622.27	5614.00
622.40	5657.00
622.52	5605.00
622.64	5651.00
622.77	5589.00
622.89	5683.00
623.02	5683.00
623.14	5603.00
623.26	5647.00
623.39	5664.00
623.51	5692.00
623.63	5658.00
623.76	5622.00
623.88	5668.00
624.00	5601.00
624.13	5609.00
624.25	5638.00
624.37	5542.00
624.50	5608.00
624.62	5640.00
624.75	5583.00
624.87	5569.00
624.99	5637.00
625.12	5595.00
625.24	5572.00
625.36	5705.00
625.49	5614.00
625.61	5666.00
625.73	5667.00
625.86	5707.00
625.98	5603.00
626.10	5604.00
626.23	5538.00
626.35	5597.00
626.47	5598.00
626.60	5561.00
626.72	5596.00
626.84	5597.00
626.97	5606.00
627.09	5584.00
627.21	5633.00
627.34	5744.00
627.46	5721.00
627.58	5670.00
627.71	5630.00
627.83	5669.00
627.95	5577.00
628.08	5614.00
628.20	5603.00
628.32	5521.00
628.45	5482.00
628.57	5563.00
628.69	5557.00
628.82	5605.00
628.94	5594.00
629.06	5560.00
629.19	5511.00
629.31	5573.00
629.43	5506.00
629.56	5564.00
629.68	5579.00
629.80	5606.00
629.93	5522.00
630.05	5597.00
630.17	5540.00
630.30	5609.00
630.42	5549.00
630.54	5609.00
630.67	5586.00
630.79	5566.00
630.91	5661.00
631.04	5632.00
631.16	5633.00
631.28	5586.00
631.41	5531.00
631.53	5505.00
631.65	5576.00
631.78	5552.00
631.90	5542.00
632.02	5566.00
632.14	5388.00
632.27	5590.00
632.39	5507.00
632.51	5472.00
632.64	5588.00
632.76	5562.00
632.88	5545.00
633.01	5536.00
633.13	5514.00
633.25	5612.00
633.38	5673.00
633.50	5463.00
633.62	5498.00
633.75	5462.00
633.87	5453.00
633.99	5519.00
634.11	5448.00
634.24	5490.00
634.36	5550.00
634.48	5539.00
634.61	5496.00
634.73	5561.00
634.85	5527.00
634.98	5511.00
635.10	5490.00
635.22	5520.00
635.35	5651.00
635.47	5527.00
635.59	5524.00
635.71	5529.00
635.84	5545.00
635.96	5524.00
636.08	5509.00
636.21	5525.00
636.33	5560.00
636.45	5525.00
636.58	5474.00
636.70	5501.00
636.82	5533.00
636.94	5513.00
637.07	5420.00
637.19	5562.00
637.31	5463.00
637.44	5534.00
637.56	5486.00
637.68	5533.00
637.81	5495.00
637.93	5485.00
638.05	5481.00
638.17	5547.00
638.30	5584.00
638.42	5485.00
638.54	5462.00
638.67	5520.00
638.79	5515.00
638.91	5506.00
639.03	5431.00
639.16	5474.00
639.28	5454.00
639.40	5509.00
639.53	5422.00
639.65	5525.00
639.77	5428.00
639.89	5544.00
640.02	5489.00
640.14	5456.00
640.26	5413.00
640.39	5498.00
640.51	5427.00
640.63	5498.00
640.75	5526.00
640.88	5402.00
641.00	5435.00
641.12	5451.00
641.24	5521.00
641.37	5426.00
641.49	5382.00
641.61	5550.00
641.74	5382.00
641.86	5489.00
641.98	5433.00
642.10	5461.00
642.23	5454.00
642.35	5458.00
642.47	5544.00
642.60	5474.00
642.72	5445.00
642.84	5421.00
642.96	5387.00
643.09	5389.00
643.21	5413.00
643.33	5362.00
643.45	5363.00
643.58	5460.00
643.70	5531.00
643.82	5461.00
643.94	5458.00
644.07	5461.00
644.19	5494.00
644.31	5457.00
644.44	5433.00
644.56	5403.00
644.68	5422.00
644.80	5414.00
644.93	5400.00
645.05	5363.00
645.17	5452.00
645.29	5392.00
645.42	5444.00
645.54	5403.00
645.66	5449.00
645.78	5371.00
645.91	5373.00
646.03	5431.00
646.15	5536.00
646.27	5396.00
646.40	5429.00
646.52	5451.00
646.64	5445.00
646.76	5415.00
646.89	5384.00
647.01	5448.00
647.13	5434.00
647.25	5445.00
647.38	5396.00
647.50	5428.00
647.62	5421.00
647.74	5337.00
647.87	5381.00
647.99	5450.00
648.11	5431.00
648.23	5341.00
648.36	5342.00
648.48	5402.00
648.60	5386.00
648.72	5349.00
648.85	5332.00
648.97	5445.00
649.09	5443.00
649.21	5433.00
649.34	5452.00
649.46	5461.00
649.58	5438.00
649.70	5412.00
649.83	5332.00
649.95	5454.00
650.07	5418.00
650.19	5413.00
650.32	5420.00
650.44	5399.00
650.56	5457.00
650.68	5402.00
650.81	5375.00
650.93	5350.00
651.05	5441.00
651.17	5339.00
651.29	5386.00
651.42	5367.00
651.54	5416.00
651.66	5367.00
651.78	5325.00
651.91	5459.00
652.03	5590.00
652.15	5459.00
652.27	5382.00
652.40	5369.00
652.52	5329.00
652.64	5383.00
652.76	5402.00
652.88	5488.00
653.01	5358.00
653.13	5306.00
653.25	5247.00
653.37	5372.00
653.50	5334.00
653.62	5408.00
653.74	5350.00
653.86	5405.00
653.98	5370.00
654.11	5367.00
654.23	5309.00
654.35	5306.00
654.47	5449.00
654.60	5361.00
654.72	5330.00
654.84	5301.00
654.96	5401.00
655.08	5325.00
655.21	5344.00
655.33	5344.00
655.45	5419.00
655.57	5342.00
655.70	5373.00
655.82	5313.00
655.94	5378.00
656.06	5366.00
656.18	5358.00
656.31	5376.00
656.43	5332.00
656.55	5293.00
656.67	5269.00
656.79	5320.00
656.92	5388.00
657.04	5324.00
657.16	5257.00
657.28	5463.00
657.40	5335.00
657.53	5367.00
657.65	5270.00
657.77	5380.00
657.89	5344.00
658.01	5252.00
658.14	5287.00
658.26	5349.00
658.38	5282.00
658.50	5281.00
658.62	5274.00
658.75	5392.00
658.87	5373.00
658.99	5359.00
659.11	5278.00
659.23	5396.00
659.36	5441.00
659.48	5357.00
659.60	5280.00
659.72	5288.00
659.84	5262.00
659.97	5324.00
660.09	5331.00
660.21	5390.00
660.33	5320.00
660.45	5211.00
660.58	5198.00
660.70	5191.00
660.82	5208.00
660.94	5195.00
661.06	5234.00
661.19	5355.00
661.31	5329.00
661.43	5281.00
661.55	5246.00
661.67	5326.00
661.80	5335.00
661.92	5234.00
662.04	5250.00
662.16	5223.00
662.28	5279.00
662.40	5240.00
662.53	5223.00
662.65	5257.00
662.77	5187.00
662.89	5259.00
663.01	5192.00
663.14	5219.00
663.26	5297.00
663.38	5252.00
663.50	5187.00
663.62	5200.00
663.74	5217.00
663.87	5211.00
663.99	5221.00
664.11	5251.00
664.23	5319.00
664.35	5162.00
664.48	5207.00
664.60	5198.00
664.72	5223.00
664.84	5167.00
664.96	5196.00
665.08	5228.00
665.21	5193.00
665.33	5181.00
665.45	5178.00
665.57	5160.00
665.69	5264.00
665.81	5173.00
665.94	5115.00
666.06	5158.00
666.18	5129.00
666.30	5122.00
666.42	5153.00
666.54	5196.00
666.67	5187.00
666.79	5129.00
666.91	5184.00
667.03	5134.00
667.15	5033.00
667.27	5128.00
667.40	5118.00
667.52	5130.00
667.64	5186.00
667.76	5120.00
667.88	5074.00
668.00	5228.00
668.13	5176.00
668.25	5098.00
668.37	5082.00
668.49	5109.00
668.61	5129.00
668.73	5095.00
668.85	5089.00
668.98	5150.00
669.10	5107.00
669.22	5111.00
669.34	5088.00
669.46	5190.00
669.58	5082.00
669.71	5152.00
669.83	5108.00
669.95	5096.00
670.07	5094.00
670.19	5066.00
670.31	5075.00
670.43	5086.00
670.56	5125.00
670.68	5109.00
670.80	5089.00
670.92	5108.00
671.04	5166.00
671.16	5088.00
671.28	5042.00
671.41	5073.00
671.53	5132.00
671.65	5104.00
671.77	5070.00
671.89	5201.00
672.01	5126.00
672.13	5088.00
672.26	5050.00
672.38	5066.00
672.50	5033.00
672.62	5100.00
672.74	5076.00
672.86	5081.00
672.98	5055.00
673.11	5090.00
673.23	5060.00
673.35	5128.00
673.47	5026.00
673.59	5036.00
673.71	5044.00
673.83	5072.00
673.96	5138.00
674.08	5064.00
674.20	5042.00
674.32	5022.00
674.44	5024.00
674.56	5067.00
674.68	5005.00
674.80	5073.00
674.93	5039.00
675.05	5003.00
675.17	5071.00
675.29	5108.00
675.41	5069.00
675.53	5039.00
675.65	4977.00
675.77	5001.00
675.90	5061.00
676.02	5045.00
676.14	4969.00
676.26	5078.00
676.38	5140.00
676.50	5027.00
676.62	5059.00
676.74	4962.00
676.87	4990.00
676.99	5046.00
677.11	5049.00
677.23	4994.00
677.35	5033.00
677.47	4968.00
677.59	4971.00
677.71	5030.00
677.83	5018.00
677.96	4988.00
678.08	5006.00
678.20	4989.00
678.32	5009.00
678.44	5004.00
678.56	4958.00
678.68	5156.00
678.80	5031.00
678.93	4933.00
679.05	4989.00
679.17	5001.00
679.29	5034.00
679.41	4948.00
679.53	4910.00
679.65	4918.00
679.77	4931.00
679.89	4967.00
680.01	5027.00
680.14	5005.00
680.26	4928.00
680.38	4982.00
680.50	5003.00
680.62	5025.00
680.74	4972.00
680.86	4950.00
680.98	4988.00
681.10	4992.00
681.22	5031.00
681.35	4930.00
681.47	4922.00
681.59	4932.00
681.71	5068.00
681.83	4975.00
681.95	4886.00
682.07	5006.00
682.19	4971.00
682.31	4932.00
682.43	4909.00
682.56	4964.00
682.68	4871.00
682.80	4922.00
682.92	5000.00
683.04	4983.00
683.16	4932.00
683.28	4888.00
683.40	5014.00
683.52	4945.00
683.64	5006.00
683.76	4918.00
683.89	4963.00
684.01	4918.00
684.13	5049.00
684.25	4950.00
684.37	4905.00
684.49	4975.00
684.61	4921.00
684.73	4955.00
684.85	4958.00
684.97	4893.00
685.09	5017.00
685.21	4909.00
685.34	4904.00
685.46	5060.00
685.58	4985.00
685.70	4929.00
685.82	4976.00
685.94	4914.00
686.06	4951.00
686.18	4871.00
686.30	4926.00
686.42	4894.00
686.54	4954.00
686.66	4925.00
686.79	4969.00
686.91	4937.00
687.03	5050.00
687.15	4992.00
687.27	4917.00
687.39	4935.00
687.51	4987.00
687.63	4953.00
687.75	4962.00
687.87	5029.00
687.99	5038.00
688.11	4954.00
688.23	4951.00
688.35	4965.00
688.48	4963.00
688.60	4915.00
688.72	4926.00
688.84	4924.00
688.96	4938.00
689.08	4973.00
689.20	4944.00
689.32	5032.00
689.44	4884.00
689.56	4875.00
689.68	4860.00
689.80	4922.00
689.92	4913.00
690.04	4907.00
690.16	4977.00
690.28	4924.00
690.41	4934.00
690.53	4880.00
690.65	4939.00
690.77	4970.00
690.89	4990.00
691.01	4960.00
691.13	4958.00
691.25	4900.00
691.37	4917.00
691.49	4886.00
691.61	4895.00
691.73	5005.00
691.85	4924.00
691.97	4915.00
692.09	4897.00
692.21	4959.00
692.33	4994.00
692.45	4994.00
692.57	4951.00
692.70	4982.00
692.82	4924.00
692.94	4896.00
693.06	4916.00
693.18	4955.00
693.30	4891.00
693.42	4849.00
693.54	4934.00
693.66	4887.00
693.78	4948.00
693.90	4915.00
694.02	4941.00
694.14	4930.00
694.26	4932.00
694.38	4969.00
694.50	4954.00
694.62	4966.00
694.74	4957.00
694.86	4917.00
694.98	4981.00
695.10	4965.00
695.22	4995.00
695.34	4954.00
695.46	4878.00
695.58	4905.00
695.71	4911.00
695.83	5012.00
695.95	4957.00
696.07	4964.00
696.19	4852.00
696.31	4948.00
696.43	4876.00
696.55	5037.00
696.67	4974.00
696.79	4908.00
696.91	4937.00
697.03	4945.00
697.15	5023.00
697.27	4894.00
697.39	4904.00
697.51	4966.00
697.63	4882.00
697.75	4949.00
697.87	4950.00
697.99	4902.00
698.11	4882.00
698.23	4894.00
698.35	4893.00
698.47	4904.00
698.59	4950.00
698.71	4915.00
698.83	5042.00
698.95	4917.00
699.07	4970.00
699.19	4916.00
699.31	4975.00
699.43	4877.00
699.55	4991.00
699.67	4945.00
699.79	4925.00
699.91	4934.00
700.03	4960.00
700.15	4955.00
700.27	4932.00
700.39	4986.00
700.51	4931.00
700.63	4983.00
700.75	4966.00
700.87	4968.00
700.99	4916.00
701.11	5016.00
701.24	5015.00
701.36	4993.00
701.48	4990.00
701.60	5002.00
701.72	4886.00
701.84	5034.00
701.96	5003.00
702.08	4938.00
702.20	5009.00
702.32	4976.00
702.44	4994.00
702.56	4902.00
702.68	4963.00
702.80	4976.00
702.92	5066.00
703.04	5049.00
703.16	5011.00
703.28	5003.00
703.40	4976.00
703.52	5007.00
703.64	5018.00
703.76	5003.00
703.88	4954.00
704.00	4995.00
704.12	4973.00
704.24	4968.00
704.36	4990.00
704.48	4971.00
704.60	4894.00
704.72	4979.00
704.84	4972.00
704.96	4958.00
705.07	5044.00
705.19	4977.00
705.31	4967.00
705.43	5010.00
705.55	4973.00
705.67	5020.00
705.79	5000.00
705.91	4896.00
706.03	4966.00
706.15	5004.00
706.27	4985.00
706.39	4950.00
706.51	5004.00
706.63	4954.00
706.75	5024.00
706.87	4991.00
706.99	5031.00
707.11	4994.00
707.23	4914.00
707.35	5014.00
707.47	5028.00
707.59	5010.00
707.71	5052.00
707.83	4953.00
707.95	5007.00
708.07	4991.00
708.19	5108.00
708.31	5002.00
708.43	4952.00
708.55	5010.00
708.67	5084.00
708.79	5006.00
708.91	5001.00
709.03	5027.00
709.15	5051.00
709.27	4972.00
709.39	5017.00
709.51	4962.00
709.63	5008.00
709.75	5012.00
709.87	4949.00
709.99	5034.00
710.11	4967.00
710.23	4950.00
710.35	5011.00
710.47	5105.00
710.58	5023.00
710.70	5103.00
710.82	5078.00
710.94	5057.00
711.06	5048.00
711.18	5001.00
711.30	4981.00
711.42	5070.00
711.54	4976.00
711.66	5054.00
711.78	4962.00
711.90	5066.00
712.02	5016.00
712.14	4987.00
712.26	4950.00
712.38	5074.00
712.50	5070.00
712.62	5026.00
712.74	4965.00
712.86	5004.00
712.98	4990.00
713.10	4950.00
713.22	4957.00
713.34	5012.00
713.45	4929.00
713.57	4954.00
713.69	5031.00
713.81	4979.00
713.93	4993.00
714.05	4971.00
714.17	4967.00
714.29	5098.00
714.41	5078.00
714.53	5015.00
714.65	5032.00
714.77	4989.00
714.89	4929.00
715.01	4995.00
715.13	5010.00
715.25	5005.00
715.37	4899.00
715.49	4906.00
715.61	5040.00
715.72	5030.00
715.84	5005.00
715.96	4959.00
716.08	4973.00
716.20	5014.00
716.32	5030.00
716.44	4980.00
716.56	5021.00
716.68	4965.00
716.80	5094.00
716.92	5023.00
717.04	5022.00
717.16	5016.00
717.28	4985.00
717.40	4985.00
717.52	4989.00
717.63	4985.00
717.75	5021.00
717.87	4988.00
717.99	4977.00
718.11	4924.00
718.23	5061.00
718.35	4991.00
718.47	4998.00
718.59	4909.00
718.71	4939.00
718.83	4991.00
718.95	5012.00
719.07	4932.00
719.19	4921.00
719.30	4894.00
719.42	4986.00
719.54	4917.00
719.66	4928.00
719.78	4909.00
719.90	4897.00
720.02	4978.00
720.14	4925.00
720.26	4982.00
720.38	4969.00
720.50	4922.00
720.62	4878.00
720.74	4971.00
720.85	4954.00
720.97	5004.00
721.09	4982.00
721.21	4920.00
721.33	4993.00
721.45	4969.00
721.57	4948.00
721.69	4919.00
721.81	4865.00
721.93	5018.00
722.05	4992.00
722.16	4887.00
722.28	4885.00
722.40	4871.00
722.52	4964.00
722.64	5018.00
722.76	4853.00
722.88	4940.00
723.00	4947.00
723.12	4912.00
723.24	4932.00
723.36	4854.00
723.47	4963.00
723.59	4944.00
723.71	4871.00
723.83	4944.00
723.95	4853.00
724.07	4904.00
724.19	4934.00
724.31	5018.00
724.43	4872.00
724.55	4869.00
724.66	4918.00
724.78	5002.00
724.90	4890.00
725.02	4907.00
725.14	4895.00
725.26	4915.00
725.38	4813.00
725.50	4903.00
725.62	4898.00
725.74	4931.00
725.85	4912.00
725.97	4921.00
726.09	4957.00
726.21	5242.00
726.33	4922.00
726.45	4916.00
726.57	4896.00
726.69	4901.00
726.81	4877.00
726.92	4905.00
727.04	4903.00
727.16	4968.00
727.28	4961.00
727.40	4913.00
727.52	4933.00
727.64	5032.00
727.76	5019.00
727.88	4915.00
727.99	4839.00
728.11	4788.00
728.23	4899.00
728.35	4910.00
728.47	4952.00
728.59	4897.00
728.71	4901.00
728.83	4910.00
728.94	4938.00
729.06	5034.00
729.18	4992.00
729.30	4901.00
729.42	4896.00
729.54	5014.00
729.66	4992.00
729.78	4900.00
729.90	4971.00
730.01	4900.00
730.13	4769.00
730.25	4869.00
730.37	4945.00
730.49	4936.00
730.61	4923.00
730.73	4934.00
730.84	4903.00
730.96	4900.00
731.08	4914.00
731.20	4869.00
731.32	4876.00
731.44	5018.00
731.56	4944.00
731.68	4886.00
731.79	4908.00
731.91	4844.00
732.03	4873.00
732.15	4922.00
732.27	4802.00
732.39	4845.00
732.51	4925.00
732.62	4879.00
732.74	4869.00
732.86	4924.00
732.98	4872.00
733.10	4876.00
733.22	4908.00
733.34	4944.00
733.45	4813.00
733.57	4858.00
733.69	4794.00
733.81	4906.00
733.93	4865.00
734.05	4802.00
734.17	4833.00
734.28	4858.00
734.40	4879.00
734.52	4818.00
734.64	4832.00
734.76	4946.00
734.88	4865.00
735.00	4811.00
735.11	4883.00
735.23	4884.00
735.35	4837.00
735.47	4793.00
735.59	4889.00
735.71	4851.00
735.83	4858.00
735.94	4898.00
736.06	4854.00
736.18	4908.00
736.30	4937.00
736.42	4842.00
736.54	4818.00
736.65	4924.00
736.77	5009.00
736.89	4905.00
737.01	4847.00
737.13	4941.00
737.25	4756.00
737.36	4768.00
737.48	4850.00
737.60	4837.00
737.72	4792.00
737.84	4835.00
737.96	4907.00
738.08	4817.00
738.19	4923.00
738.31	4770.00
738.43	4852.00
738.55	4774.00
738.67	4833.00
738.79	4778.00
738.90	4803.00
739.02	4764.00
739.14	4765.00
739.26	4802.00
739.38	4811.00
739.50	4852.00
739.61	4774.00
739.73	4809.00
739.85	4788.00
739.97	4837.00
740.09	4876.00
740.20	4725.00
740.32	4841.00
740.44	4811.00
740.56	4743.00
740.68	4769.00
740.80	4800.00
740.91	4780.00
741.03	4811.00
741.15	4807.00
741.27	4773.00
741.39	4873.00
741.51	4763.00
741.62	4828.00
741.74	4764.00
741.86	4764.00
741.98	4737.00
742.10	4801.00
742.21	4744.00
742.33	4812.00
742.45	4713.00
742.57	4785.00
742.69	4705.00
742.80	4754.00
742.92	4733.00
743.04	4818.00
743.16	4750.00
743.28	4775.00
743.40	4687.00
743.51	4729.00
743.63	4706.00
743.75	4710.00
743.87	4720.00
743.99	4732.00
744.10	4709.00
744.22	4707.00
744.34	4642.00
744.46	4712.00
744.58	4737.00
744.69	4607.00
744.81	4669.00
744.93	4628.00
745.05	4620.00
745.17	4800.00
745.28	4765.00
745.40	4698.00
745.52	4716.00
745.64	4703.00
745.76	4696.00
745.87	4656.00
745.99	4624.00
746.11	4740.00
746.23	4641.00
746.35	4680.00
746.46	4621.00
746.58	4755.00
746.70	4639.00
746.82	4702.00
746.94	4597.00
747.05	4569.00
747.17	4552.00
747.29	4576.00
747.41	4623.00
747.53	4757.00
747.64	4634.00
747.76	4748.00
747.88	4684.00
748.00	4675.00
748.12	4586.00
748.23	4566.00
748.35	4597.00
748.47	4645.00
748.59	4626.00
748.70	4589.00
748.82	4570.00
748.94	4613.00
749.06	4584.00
749.18	4603.00
749.29	4579.00
749.41	4582.00
749.53	4569.00
749.65	4540.00
749.76	4626.00
749.88	4574.00
750.00	4611.00
750.12	4622.00
750.24	4586.00
750.35	4589.00
750.47	4478.00
750.59	4608.00
750.71	4535.00
750.82	4664.00
750.94	4543.00
751.06	4560.00
751.18	4520.00
751.30	4595.00
751.41	4560.00
751.53	4604.00
751.65	4546.00
751.77	4472.00
751.88	4560.00
752.00	4562.00
752.12	4507.00
752.24	4569.00
752.35	4544.00
752.47	4574.00
752.59	4527.00
752.71	4537.00
752.83	4472.00
752.94	4568.00
753.06	4505.00
753.18	4462.00
753.30	4439.00
753.41	4453.00
753.53	4439.00
753.65	4473.00
753.77	4512.00
753.88	4432.00
754.00	4424.00
754.12	4460.00
754.24	4483.00
754.35	4479.00
754.47	4379.00
754.59	4466.00
754.71	4476.00
754.82	4431.00
754.94	4430.00
755.06	4452.00
755.18	4428.00
755.29	4439.00
755.41	4403.00
755.53	4485.00
755.65	4388.00
755.76	4469.00
755.88	4397.00
756.00	4445.00
756.12	4388.00
756.23	4265.00
756.35	4334.00
756.47	4382.00
756.59	4389.00
756.70	4383.00
756.82	4380.00
756.94	4330.00
757.06	4393.00
757.17	4393.00
757.29	4378.00
757.41	4284.00
757.53	4400.00
757.64	4343.00
757.76	4372.00
757.88	4381.00
758.00	4418.00
758.11	4312.00
758.23	4294.00
758.35	4350.00
758.47	4298.00
758.58	4356.00
758.70	4250.00
758.82	4328.00
758.94	4287.00
759.05	4312.00
759.17	4265.00
759.29	4272.00
759.40	4348.00
759.52	4304.00
759.64	4281.00
759.76	4345.00
759.87	4318.00
759.99	4278.00
760.11	4230.00
760.23	4253.00
760.34	4293.00
760.46	4289.00
760.58	4277.00
760.70	4250.00
760.81	4292.00
760.93	4268.00
761.05	4298.00
761.16	4233.00
761.28	4226.00
761.40	4243.00
761.52	4156.00
761.63	4232.00
761.75	4234.00
761.87	4232.00
761.98	4220.00
762.10	4215.00
762.22	4188.00
762.34	4233.00
762.45	4177.00
762.57	4233.00
762.69	4310.00
762.81	4134.00
762.92	4226.00
763.04	4098.00
763.16	4197.00
763.27	4195.00
763.39	4166.00
763.51	4146.00
763.63	4161.00
763.74	4201.00
763.86	4098.00
763.98	4099.00
764.09	4103.00
764.21	4124.00
764.33	4093.00
764.44	4087.00
764.56	4090.00
764.68	4106.00
764.80	4176.00
764.91	4053.00
765.03	4186.00
765.15	4106.00
765.26	4096.00
765.38	4075.00
765.50	4116.00
765.62	4120.00
765.73	4057.00
765.85	4080.00
765.97	4026.00
766.08	4065.00
766.20	4069.00
766.32	4071.00
766.43	4089.00
766.55	4144.00
766.67	4073.00
766.79	4031.00
766.90	4032.00
767.02	3968.00
767.14	4039.00
767.25	4027.00
767.37	4120.00
767.49	4013.00
767.60	4006.00
767.72	4106.00
767.84	4039.00
767.95	4025.00
768.07	4027.00
768.19	4037.00
768.31	4008.00
768.42	4004.00
768.54	4011.00
768.66	3960.00
768.77	3997.00
768.89	3994.00
769.01	3954.00
769.12	3990.00
769.24	3992.00
769.36	3941.00
769.47	3935.00
769.59	3914.00
769.71	3986.00
769.82	3965.00
769.94	3963.00
770.06	3910.00
770.17	4002.00
770.29	3929.00
770.41	3959.00
770.53	3931.00
770.64	3899.00
770.76	3924.00
770.88	3959.00
770.99	3915.00
771.11	3886.00
771.23	3902.00
771.34	3868.00
771.46	3975.00
771.58	3952.00
771.69	3945.00
771.81	3886.00
771.93	3912.00
772.04	3891.00
772.16	3922.00
772.28	3899.00
772.39	3937.00
772.51	3797.00
772.63	3834.00
772.74	3848.00
772.86	3862.00
772.98	3941.00
773.09	3813.00
773.21	3833.00
773.33	3877.00
773.44	3817.00
773.56	3745.00
773.68	3838.00
773.79	3863.00
773.91	3772.00
774.03	3770.00
774.14	3787.00
774.26	3855.00
774.38	3701.00
774.49	3725.00
774.61	3750.00
774.73	3808.00
774.84	3773.00
774.96	3690.00
775.08	3735.00
775.19	3706.00
775.31	3780.00
775.43	3747.00
775.54	3655.00
775.66	3665.00
775.77	3806.00
775.89	3706.00
776.01	3756.00
776.12	3767.00
776.24	3765.00
776.36	3682.00
776.47	3705.00
776.59	3704.00
776.71	3722.00
776.82	3657.00
776.94	3670.00
777.06	3659.00
777.17	3692.00
777.29	3658.00
777.41	3649.00
777.52	3680.00
777.64	3655.00
777.75	3735.00
777.87	3564.00
777.99	3641.00
778.10	3674.00
778.22	3600.00
778.34	3608.00
778.45	3624.00
778.57	3627.00
778.69	3665.00
778.80	3623.00
778.92	3708.00
779.04	3580.00
779.15	3602.00
779.27	3644.00
779.38	3637.00
779.50	3665.00
779.62	3576.00
779.73	3589.00
779.85	3517.00
779.97	3652.00
780.08	3569.00
780.20	3568.00
780.31	3566.00
780.43	3589.00
780.55	3533.00
780.66	3576.00
780.78	3548.00
780.90	3642.00
781.01	3489.00
781.13	3521.00
781.25	3522.00
781.36	3551.00
781.48	3481.00
781.59	3512.00
781.71	3565.00
781.83	3512.00
781.94	3457.00
782.06	3453.00
782.18	3541.00
782.29	3461.00
782.41	3428.00
782.52	3521.00
782.64	3530.00
782.76	3454.00
782.87	3467.00
782.99	3409.00
783.10	3559.00
783.22	3583.00
783.34	3425.00
783.45	3468.00
783.57	3458.00
783.69	3428.00
783.80	3419.00
783.92	3426.00
784.03	3410.00
784.15	3394.00
784.27	3376.00
784.38	3365.00
784.50	3447.00
784.61	3392.00
784.73	3356.00
784.85	3329.00
784.96	3338.00
785.08	3433.00
785.19	3420.00
785.31	3399.00
785.43	3294.00
785.54	3325.00
785.66	3384.00
785.77	3387.00
785.89	3381.00
786.01	3350.00
786.12	3356.00
786.24	3333.00
786.35	3422.00
786.47	3345.00
786.59	3341.00
786.70	3310.00
786.82	3353.00
786.93	3367.00
787.05	3333.00
787.17	3337.00
787.28	3307.00
787.40	3273.00
787.51	3310.00
787.63	3325.00
787.75	3272.00
787.86	3325.00
787.98	3331.00
788.09	3293.00
788.21	3303.00
788.33	3308.00
788.44	3246.00
788.56	3227.00
788.67	3288.00
788.79	3222.00
788.91	3255.00
789.02	3254.00
789.14	3233.00
789.25	3312.00
789.37	3294.00
789.48	3221.00
789.60	3271.00
789.72	3189.00
789.83	3231.00
789.95	3230.00
790.06	3195.00
790.18	3153.00
790.30	3216.00
790.41	3205.00
790.53	3148.00
790.64	3148.00
790.76	3150.00
790.87	3175.00
790.99	3166.00
791.11	3198.00
791.22	3170.00
791.34	3139.00
791.45	3204.00
791.57	3235.00
791.68	3160.00
791.80	3105.00
791.92	3173.00
792.03	3109.00
792.15	3094.00
792.26	3138.00
792.38	3115.00
792.49	3160.00
792.61	3088.00
792.73	3104.00
792.84	3124.00
792.96	3246.00
793.07	3131.00
793.19	3886.00
793.30	3218.00
793.42	3159.00
793.54	3055.00
793.65	3053.00
793.77	3150.00
793.88	3039.00
794.00	3073.00
794.11	3065.00
794.23	3025.00
794.34	3100.00
794.46	3022.00
794.58	3059.00
794.69	3181.00
794.81	3118.00
794.92	2989.00
795.04	3005.00
795.15	3100.00
795.27	3053.00
795.39	3061.00
795.50	3008.00
795.62	2993.00
795.73	2995.00
795.85	2995.00
795.96	3065.00
796.08	3097.00
796.19	2946.00
796.31	2975.00
796.42	2951.00
796.54	2964.00
796.66	3086.00
796.77	2932.00
796.89	2930.00
797.00	2985.00
797.12	2883.00
797.23	3002.00
797.35	2967.00
797.46	2999.00
797.58	3006.00
797.69	2956.00
797.81	2883.00
797.93	2938.00
798.04	2942.00
798.16	2917.00
798.27	2928.00
798.39	2944.00
798.50	2861.00
798.62	2881.00
798.73	2877.00
798.85	2964.00
798.96	2890.00
799.08	2934.00
799.19	2950.00
799.31	2888.00
799.43	2892.00
799.54	2853.00
799.66	2903.00
799.77	2921.00
799.89	2838.00
800.00	2802.00
800.12	2859.00
800.23	2942.00
800.35	2961.00
800.46	2799.00
800.58	2757.00
800.69	2817.00
800.81	2844.00
800.92	2833.00
801.04	2852.00
801.16	2786.00
801.27	2795.00
801.39	2802.00
801.50	2774.00
801.62	2773.00
801.73	2821.00
801.85	2823.00
801.96	2767.00
802.08	2842.00
802.19	2804.00
802.31	2772.00
802.42	2805.00
802.54	2864.00
802.65	2814.00
802.77	2737.00
802.88	2838.00
803.00	2780.00
803.11	2887.00
803.23	2764.00
803.34	2784.00
803.46	2784.00
803.57	2743.00
803.69	2779.00
803.80	2732.00
803.92	2813.00
804.03	2764.00
804.15	2762.00
804.26	2753.00
804.38	2743.00
804.50	2722.00
804.61	2759.00
804.73	2723.00
804.84	2744.00
804.96	2621.00
805.07	2732.00
805.19	2680.00
805.30	2745.00
805.42	2736.00
805.53	2674.00
805.65	2643.00
805.76	2627.00
805.88	2646.00
805.99	2656.00
806.11	2646.00
806.22	2617.00
806.34	2618.00
806.45	2644.00
806.57	2604.00
806.68	2633.00
806.80	2491.00
806.91	2548.00
807.03	2521.00
807.14	2503.00
807.26	2478.00
807.37	2495.00
807.49	2528.00
807.60	2502.00
807.72	2518.00
807.83	2574.00
807.95	2478.00
808.06	2520.00
808.17	2477.00
808.29	2512.00
808.40	2417.00
808.52	2457.00
808.63	2447.00
808.75	2444.00
808.86	2429.00
808.98	2403.00
809.09	2378.00
809.21	2414.00
809.32	2330.00
809.44	2353.00
809.55	2281.00
809.67	2338.00
809.78	2281.00
809.90	2373.00
810.01	2374.00
810.13	2262.00
810.24	2307.00
810.36	2245.00
810.47	2221.00
810.59	2257.00
810.70	2238.00
810.82	2225.00
810.93	2154.00
811.05	2119.00
811.16	2149.00
811.27	2146.00
811.39	2162.00
811.50	2181.00
811.62	2077.00
811.73	2049.00
811.85	2107.00
811.96	2130.00
812.08	2137.00
812.19	2115.00
812.31	2097.00
812.42	2090.00
812.54	2032.00
812.65	2104.00
812.77	2072.00
812.88	2039.00
813.00	2037.00
813.11	2022.00
813.22	1937.00
813.34	1939.00
813.45	1961.00
813.57	2028.00
813.68	2039.00
813.80	1929.00
813.91	1892.00
814.03	1906.00
814.14	1990.00
814.26	1886.00
814.37	1884.00
814.49	1849.00
814.60	1851.00
814.71	1853.00
814.83	1848.00
814.94	1761.00
815.06	1793.00
815.17	1784.00
815.29	1770.00
815.40	1748.00
815.52	1861.00
815.63	1747.00
815.75	1762.00
815.86	1754.00
815.97	1692.00
816.09	1722.00
816.20	1695.00
816.32	1720.00
816.43	1645.00
816.55	1714.00
816.66	1673.00
816.78	1755.00
816.89	1659.00
817.00	1638.00
817.12	1610.00
817.23	1583.00
817.35	1653.00
817.46	1603.00
817.58	1593.00
817.69	1709.00
817.81	1583.00
817.92	1584.00
818.03	1540.00
818.15	1531.00
818.26	1497.00
818.38	1476.00
818.49	1510.00
818.61	1524.00
818.72	1475.00
818.83	2522.00
818.95	1616.00
819.06	1467.00
819.18	1466.00
819.29	1478.00
819.41	1462.00
819.52	1439.00
819.64	1416.00
819.75	1390.00
819.86	1379.00
819.98	1377.00
820.09	1387.00
820.21	1380.00
820.32	1340.00
820.44	1363.00
820.55	1405.00
820.66	1318.00
820.78	1365.00
820.89	1321.00
821.01	1323.00
821.12	1306.00
821.23	1332.00
821.35	1280.00
821.46	1320.00
821.58	1277.00
821.69	1243.00
821.81	1220.00
821.92	1286.00
822.03	1247.00
822.15	1229.00
822.26	1171.00
822.38	1169.00
822.49	1207.00
822.61	1185.00
822.72	1185.00
822.83	1215.00
822.95	1189.00
823.06	1185.00
823.18	1196.00
823.29	1213.00
823.40	1165.00
823.52	1090.00
823.63	1065.00
823.75	1195.00
823.86	1111.00
823.97	1047.00
824.09	1119.00
824.20	1033.00
824.32	1077.00
824.43	1065.00
824.55	1084.00
824.66	1125.00
824.77	1040.00
824.89	1060.00
825.00	1085.00
825.12	1027.00
825.23	1053.00
825.34	970.00
825.46	970.00
825.57	1033.00
825.69	965.00
825.80	929.00
825.91	941.00
826.03	916.00
826.14	977.00
826.26	913.00
826.37	929.00
826.48	907.00
826.60	939.00
826.71	905.00
826.83	931.00
826.94	916.00
827.05	953.00
827.17	942.00
827.28	904.00
827.39	861.00
827.51	848.00
827.62	887.00
827.74	884.00
827.85	878.00
827.96	845.00
828.08	864.00
828.19	958.00
828.31	844.00
828.42	787.00
828.53	871.00
828.65	901.00
828.76	899.00
828.87	882.00
828.99	809.00
