Wavelength (nm)	Intensity
377.35	814.00
377.48	604.00
377.62	586.00
377.75	619.00
377.88	853.00
378.02	840.00
378.15	829.00
378.28	790.00
378.41	901.00
378.55	853.00
378.68	829.00
378.81	812.00
378.95	846.00
379.08	820.00
379.21	797.00
379.35	853.00
379.48	851.00
379.61	924.00
379.74	817.00
379.88	821.00
380.01	900.00
380.14	967.00
380.28	881.00
380.41	795.00
380.54	859.00
380.68	879.00
380.81	779.00
380.94	855.00
381.07	909.00
381.21	921.00
381.34	822.00
381.47	778.00
381.61	994.00
381.74	849.00
381.87	794.00
382.00	848.00
382.14	945.00
382.27	881.00
382.40	799.00
382.54	894.00
382.67	901.00
382.80	817.00
382.93	818.00
383.07	834.00
383.20	851.00
383.33	876.00
383.47	812.00
383.60	787.00
383.73	988.00
383.86	876.00
384.00	831.00
384.13	828.00
384.26	868.00
384.40	881.00
384.53	829.00
384.66	863.00
384.79	844.00
384.93	822.00
385.06	830.00
385.19	846.00
385.33	952.00
385.46	860.00
385.59	803.00
385.72	844.00
385.86	810.00
385.99	823.00
386.12	830.00
386.25	797.00
386.39	892.00
386.52	902.00
386.65	821.00
386.79	804.00
386.92	805.00
387.05	937.00
387.18	784.00
387.32	799.00
387.45	880.00
387.58	857.00
387.71	834.00
387.85	804.00
387.98	855.00
388.11	887.00
388.25	855.00
388.38	839.00
388.51	868.00
388.64	886.00
388.78	826.00
388.91	787.00
389.04	847.00
389.17	960.00
389.31	840.00
389.44	863.00
389.57	907.00
389.70	879.00
389.84	822.00
389.97	820.00
390.10	810.00
390.24	866.00
390.37	825.00
390.50	820.00
390.63	910.00
390.77	850.00
390.90	852.00
391.03	839.00
391.16	788.00
391.30	830.00
391.43	828.00
391.56	818.00
391.69	813.00
391.83	899.00
391.96	837.00
392.09	809.00
392.22	948.00
392.36	864.00
392.49	798.00
392.62	827.00
392.75	879.00
392.89	914.00
393.02	796.00
393.15	796.00
393.28	795.00
393.42	932.00
393.55	793.00
393.68	806.00
393.81	780.00
393.95	836.00
394.08	809.00
394.21	797.00
394.34	892.00
394.48	878.00
394.61	878.00
394.74	852.00
394.87	893.00
395.01	874.00
395.14	862.00
395.27	811.00
395.40	940.00
395.54	946.00
395.67	832.00
395.80	816.00
395.93	868.00
396.07	823.00
396.20	814.00
396.33	776.00
396.46	830.00
396.59	829.00
396.73	819.00
396.86	802.00
396.99	880.00
397.12	870.00
397.26	850.00
397.39	834.00
397.52	1145.00
397.65	950.00
397.79	824.00
397.92	816.00
398.05	875.00
398.18	799.00
398.32	838.00
398.45	877.00
398.58	869.00
398.71	874.00
398.84	768.00
398.98	820.00
399.11	880.00
399.24	878.00
399.37	831.00
399.51	793.00
399.64	833.00
399.77	831.00
399.90	825.00
400.03	820.00
400.17	790.00
400.30	892.00
400.43	874.00
400.56	838.00
400.70	848.00
400.83	818.00
400.96	803.00
401.09	844.00
401.23	850.00
401.36	913.00
401.49	805.00
401.62	843.00
401.75	839.00
401.89	813.00
402.02	817.00
402.15	822.00
402.28	871.00
402.41	854.00
402.55	809.00
402.68	821.00
402.81	912.00
402.94	880.00
403.08	795.00
403.21	771.00
403.34	859.00
403.47	870.00
403.60	816.00
403.74	856.00
403.87	862.00
404.00	804.00
404.13	805.00
404.26	775.00
404.40	790.00
404.53	851.00
404.66	813.00
404.79	778.00
404.93	881.00
405.06	858.00
405.19	793.00
405.32	844.00
405.45	866.00
405.59	881.00
405.72	815.00
405.85	795.00
405.98	1015.00
406.11	809.00
406.25	811.00
406.38	814.00
406.51	877.00
406.64	839.00
406.77	778.00
406.91	798.00
407.04	861.00
407.17	819.00
407.30	842.00
407.43	842.00
407.57	908.00
407.70	900.00
407.83	815.00
407.96	831.00
408.09	814.00
408.23	931.00
408.36	819.00
408.49	824.00
408.62	960.00
408.75	866.00
408.89	804.00
409.02	853.00
409.15	830.00
409.28	924.00
409.41	886.00
409.55	825.00
409.68	961.00
409.81	862.00
409.94	807.00
410.07	829.00
410.20	850.00
410.34	845.00
410.47	848.00
410.60	846.00
410.73	868.00
410.86	804.00
411.00	833.00
411.13	809.00
411.26	850.00
411.39	840.00
411.52	849.00
411.66	824.00
411.79	819.00
411.92	804.00
412.05	827.00
412.18	831.00
412.31	870.00
412.45	861.00
412.58	857.00
412.71	792.00
412.84	853.00
412.97	932.00
413.11	834.00
413.24	858.00
413.37	889.00
413.50	935.00
413.63	845.00
413.76	819.00
413.90	880.00
414.03	822.00
414.16	811.00
414.29	849.00
414.42	840.00
414.56	949.00
414.69	812.00
414.82	829.00
414.95	849.00
415.08	873.00
415.21	837.00
415.35	852.00
415.48	763.00
415.61	883.00
415.74	892.00
415.87	791.00
416.00	856.00
416.14	954.00
416.27	854.00
416.40	816.00
416.53	855.00
416.66	874.00
416.79	835.00
416.93	800.00
417.06	905.00
417.19	849.00
417.32	829.00
417.45	809.00
417.58	802.00
417.72	900.00
417.85	810.00
417.98	826.00
418.11	881.00
418.24	836.00
418.37	811.00
418.51	836.00
418.64	845.00
418.77	935.00
418.90	858.00
419.03	807.00
419.16	877.00
419.29	895.00
419.43	811.00
419.56	784.00
419.69	946.00
419.82	897.00
419.95	842.00
420.08	885.00
420.22	918.00
420.35	977.00
420.48	884.00
420.61	839.00
420.74	788.00
420.87	880.00
421.00	798.00
421.14	822.00
421.27	900.00
421.40	928.00
421.53	861.00
421.66	822.00
421.79	833.00
421.93	841.00
422.06	820.00
422.19	812.00
422.32	895.00
422.45	934.00
422.58	859.00
422.71	836.00
422.85	892.00
422.98	885.00
423.11	788.00
423.24	787.00
423.37	810.00
423.50	836.00
423.63	846.00
423.77	800.00
423.90	827.00
424.03	872.00
424.16	865.00
424.29	835.00
424.42	785.00
424.55	830.00
424.69	804.00
424.82	836.00
424.95	844.00
425.08	817.00
425.21	870.00
425.34	806.00
425.47	859.00
425.60	877.00
425.74	798.00
425.87	818.00
426.00	851.00
426.13	862.00
426.26	801.00
426.39	802.00
426.52	827.00
426.66	920.00
426.79	859.00
426.92	819.00
427.05	955.00
427.18	905.00
427.31	825.00
427.44	830.00
427.57	825.00
427.71	847.00
427.84	792.00
427.97	839.00
428.10	922.00
428.23	848.00
428.36	806.00
428.49	745.00
428.62	987.00
428.76	954.00
428.89	842.00
429.02	781.00
429.15	837.00
429.28	951.00
429.41	828.00
429.54	832.00
429.67	827.00
429.81	887.00
429.94	829.00
430.07	818.00
430.20	887.00
430.33	922.00
430.46	809.00
430.59	810.00
430.72	855.00
430.85	799.00
430.99	835.00
431.12	806.00
431.25	902.00
431.38	923.00
431.51	839.00
431.64	862.00
431.77	927.00
431.90	933.00
432.03	840.00
432.17	797.00
432.30	857.00
432.43	866.00
432.56	825.00
432.69	857.00
432.82	869.00
432.95	900.00
433.08	856.00
433.21	835.00
433.35	843.00
433.48	836.00
433.61	809.00
433.74	826.00
433.87	797.00
434.00	862.00
434.13	813.00
434.26	849.00
434.39	877.00
434.53	891.00
434.66	845.00
434.79	816.00
434.92	819.00
435.05	906.00
435.18	822.00
435.31	861.00
435.44	909.00
435.57	847.00
435.70	822.00
435.84	818.00
435.97	925.00
436.10	958.00
436.23	821.00
436.36	807.00
436.49	845.00
436.62	857.00
436.75	819.00
436.88	882.00
437.01	826.00
437.14	808.00
437.28	795.00
437.41	821.00
437.54	929.00
437.67	898.00
437.80	827.00
437.93	779.00
438.06	972.00
438.19	906.00
438.32	814.00
438.45	806.00
438.58	872.00
438.72	935.00
438.85	887.00
438.98	821.00
439.11	864.00
439.24	922.00
439.37	900.00
439.50	863.00
439.63	893.00
439.76	807.00
439.89	812.00
440.02	830.00
440.15	874.00
440.29	925.00
440.42	835.00
440.55	845.00
440.68	935.00
440.81	985.00
440.94	850.00
441.07	848.00
441.20	951.00
441.33	858.00
441.46	832.00
441.59	826.00
441.72	867.00
441.85	861.00
441.99	877.00
442.12	873.00
442.25	929.00
442.38	855.00
442.51	863.00
442.64	794.00
442.77	844.00
442.90	830.00
443.03	804.00
443.16	821.00
443.29	861.00
443.42	928.00
443.55	829.00
443.68	846.00
443.82	808.00
443.95	828.00
444.08	834.00
444.21	826.00
444.34	818.00
444.47	841.00
444.60	824.00
444.73	845.00
444.86	851.00
444.99	925.00
445.12	863.00
445.25	856.00
445.38	848.00
445.51	891.00
445.64	851.00
445.78	807.00
445.91	797.00
446.04	973.00
446.17	882.00
446.30	796.00
446.43	882.00
446.56	853.00
446.69	823.00
446.82	805.00
446.95	895.00
447.08	926.00
447.21	857.00
447.34	828.00
447.47	900.00
447.60	909.00
447.73	834.00
447.86	858.00
447.99	836.00
448.13	857.00
448.26	884.00
448.39	833.00
448.52	879.00
448.65	889.00
448.78	841.00
448.91	825.00
449.04	878.00
449.17	836.00
449.30	866.00
449.43	845.00
449.56	832.00
449.69	915.00
449.82	838.00
449.95	794.00
450.08	915.00
450.21	871.00
450.34	830.00
450.47	822.00
450.60	893.00
450.73	854.00
450.87	817.00
451.00	867.00
451.13	895.00
451.26	1009.00
451.39	837.00
451.52	881.00
451.65	852.00
451.78	835.00
451.91	834.00
452.04	820.00
452.17	952.00
452.30	936.00
452.43	836.00
452.56	818.00
452.69	904.00
452.82	823.00
452.95	879.00
453.08	820.00
453.21	777.00
453.34	903.00
453.47	807.00
453.60	896.00
453.73	933.00
453.86	881.00
453.99	858.00
454.12	863.00
454.25	843.00
454.38	872.00
454.52	811.00
454.65	826.00
454.78	836.00
454.91	812.00
455.04	818.00
455.17	811.00
455.30	812.00
455.43	936.00
455.56	828.00
455.69	799.00
455.82	888.00
455.95	871.00
456.08	814.00
456.21	802.00
456.34	784.00
456.47	770.00
456.60	819.00
456.73	799.00
456.86	830.00
456.99	880.00
457.12	812.00
457.25	853.00
457.38	934.00
457.51	886.00
457.64	868.00
457.77	820.00
457.90	849.00
458.03	842.00
458.16	823.00
458.29	830.00
458.42	859.00
458.55	794.00
458.68	822.00
458.81	823.00
458.94	923.00
459.07	964.00
459.20	800.00
459.33	811.00
459.46	910.00
459.59	954.00
459.72	898.00
459.85	834.00
459.98	925.00
460.11	884.00
460.24	849.00
460.37	812.00
460.50	887.00
460.63	841.00
460.76	822.00
460.89	846.00
461.02	886.00
461.15	878.00
461.28	835.00
461.41	851.00
461.54	929.00
461.67	809.00
461.80	846.00
461.93	895.00
462.06	873.00
462.19	900.00
462.32	825.00
462.45	817.00
462.58	883.00
462.71	842.00
462.84	837.00
462.97	784.00
463.10	849.00
463.23	877.00
463.36	869.00
463.49	854.00
463.62	795.00
463.75	872.00
463.88	836.00
464.01	853.00
464.14	821.00
464.27	958.00
464.40	826.00
464.53	822.00
464.66	880.00
464.79	861.00
464.92	844.00
465.05	822.00
465.18	847.00
465.31	860.00
465.44	846.00
465.57	811.00
465.70	824.00
465.83	974.00
465.96	870.00
466.09	823.00
466.22	923.00
466.35	894.00
466.48	830.00
466.61	832.00
466.74	857.00
466.87	909.00
467.00	882.00
467.13	872.00
467.26	870.00
467.39	802.00
467.52	823.00
467.65	847.00
467.78	922.00
467.91	865.00
468.04	860.00
468.17	826.00
468.30	830.00
468.43	815.00
468.56	820.00
468.69	861.00
468.82	902.00
468.95	819.00
469.08	830.00
469.21	842.00
469.34	898.00
469.47	964.00
469.60	948.00
469.73	861.00
469.86	883.00
469.99	908.00
470.11	821.00
470.24	816.00
470.37	904.00
470.50	874.00
470.63	831.00
470.76	851.00
470.89	898.00
471.02	989.00
471.15	833.00
471.28	837.00
471.41	958.00
471.54	881.00
471.67	848.00
471.80	793.00
471.93	920.00
472.06	869.00
472.19	846.00
472.32	828.00
472.45	979.00
472.58	911.00
472.71	870.00
472.84	837.00
472.97	838.00
473.10	825.00
473.23	903.00
473.36	805.00
473.49	925.00
473.62	916.00
473.74	876.00
473.87	884.00
474.00	832.00
474.13	844.00
474.26	875.00
474.39	882.00
474.52	861.00
474.65	852.00
474.78	849.00
474.91	813.00
475.04	903.00
475.17	997.00
475.30	900.00
475.43	867.00
475.56	915.00
475.69	876.00
475.82	885.00
475.95	831.00
476.08	953.00
476.21	883.00
476.34	908.00
476.46	901.00
476.59	932.00
476.72	870.00
476.85	863.00
476.98	838.00
477.11	916.00
477.24	874.00
477.37	812.00
477.50	844.00
477.63	875.00
477.76	838.00
477.89	817.00
478.02	822.00
478.15	870.00
478.28	876.00
478.41	898.00
478.54	842.00
478.66	935.00
478.79	869.00
478.92	853.00
479.05	860.00
479.18	885.00
479.31	829.00
479.44	840.00
479.57	849.00
479.70	858.00
479.83	884.00
479.96	844.00
480.09	894.00
480.22	1027.00
480.35	999.00
480.48	924.00
480.60	882.00
480.73	844.00
480.86	908.00
480.99	864.00
481.12	866.00
481.25	880.00
481.38	951.00
481.51	850.00
481.64	866.00
481.77	890.00
481.90	860.00
482.03	859.00
482.16	854.00
482.29	950.00
482.41	892.00
482.54	905.00
482.67	844.00
482.80	893.00
482.93	940.00
483.06	858.00
483.19	938.00
483.32	905.00
483.45	878.00
483.58	890.00
483.71	908.00
483.84	930.00
483.97	913.00
484.09	883.00
484.22	859.00
484.35	855.00
484.48	830.00
484.61	843.00
484.74	848.00
484.87	892.00
485.00	854.00
485.13	900.00
485.26	841.00
485.39	903.00
485.52	861.00
485.64	948.00
485.77	907.00
485.90	928.00
486.03	852.00
486.16	908.00
486.29	850.00
486.42	878.00
486.55	893.00
486.68	877.00
486.81	911.00
486.94	899.00
487.06	867.00
487.19	908.00
487.32	929.00
487.45	905.00
487.58	864.00
487.71	882.00
487.84	844.00
487.97	922.00
488.10	926.00
488.23	856.00
488.35	813.00
488.48	891.00
488.61	845.00
488.74	845.00
488.87	849.00
489.00	904.00
489.13	978.00
489.26	914.00
489.39	922.00
489.52	925.00
489.64	924.00
489.77	885.00
489.90	879.00
490.03	897.00
490.16	878.00
490.29	873.00
490.42	866.00
490.55	908.00
490.68	848.00
490.81	862.00
490.93	824.00
491.06	957.00
491.19	923.00
491.32	903.00
491.45	919.00
491.58	838.00
491.71	900.00
491.84	876.00
491.97	861.00
492.09	952.00
492.22	910.00
492.35	902.00
492.48	927.00
492.61	931.00
492.74	903.00
492.87	899.00
493.00	898.00
493.12	883.00
493.25	900.00
493.38	886.00
493.51	871.00
493.64	856.00
493.77	908.00
493.90	910.00
494.03	899.00
494.16	942.00
494.28	962.00
494.41	872.00
494.54	888.00
494.67	1026.00
494.80	973.00
494.93	893.00
495.06	914.00
495.19	937.00
495.31	908.00
495.44	879.00
495.57	861.00
495.70	925.00
495.83	898.00
495.96	860.00
496.09	893.00
496.22	974.00
496.34	995.00
496.47	905.00
496.60	917.00
496.73	968.00
496.86	951.00
496.99	872.00
497.12	884.00
497.24	834.00
497.37	913.00
497.50	887.00
497.63	864.00
497.76	890.00
497.89	965.00
498.02	919.00
498.15	827.00
498.27	912.00
498.40	957.00
498.53	954.00
498.66	906.00
498.79	944.00
498.92	871.00
499.05	900.00
499.17	922.00
499.30	941.00
499.43	998.00
499.56	920.00
499.69	843.00
499.82	907.00
499.95	882.00
500.07	875.00
500.20	898.00
500.33	947.00
500.46	1056.00
500.59	910.00
500.72	920.00
500.85	978.00
500.97	956.00
501.10	965.00
501.23	872.00
501.36	912.00
501.49	997.00
501.62	913.00
501.75	904.00
501.87	973.00
502.00	849.00
502.13	930.00
502.26	922.00
502.39	893.00
502.52	911.00
502.64	853.00
502.77	878.00
502.90	950.00
503.03	920.00
503.16	879.00
503.29	898.00
503.42	976.00
503.54	922.00
503.67	905.00
503.80	921.00
503.93	945.00
504.06	865.00
504.19	902.00
504.31	956.00
504.44	924.00
504.57	949.00
504.70	922.00
504.83	858.00
504.96	938.00
505.08	923.00
505.21	916.00
505.34	1018.00
505.47	969.00
505.60	958.00
505.73	958.00
505.85	952.00
505.98	1052.00
506.11	911.00
506.24	875.00
506.37	882.00
506.50	927.00
506.62	968.00
506.75	905.00
506.88	892.00
507.01	937.00
507.14	891.00
507.27	888.00
507.39	858.00
507.52	888.00
507.65	886.00
507.78	909.00
507.91	869.00
508.04	974.00
508.16	974.00
508.29	930.00
508.42	897.00
508.55	886.00
508.68	884.00
508.81	940.00
508.93	885.00
509.06	907.00
509.19	980.00
509.32	918.00
509.45	933.00
509.57	942.00
509.70	889.00
509.83	917.00
509.96	867.00
510.09	916.00
510.22	923.00
510.34	925.00
510.47	924.00
510.60	1029.00
510.73	949.00
510.86	936.00
510.98	881.00
511.11	920.00
511.24	994.00
511.37	941.00
511.50	901.00
511.63	916.00
511.75	949.00
511.88	928.00
512.01	946.00
512.14	938.00
512.27	936.00
512.39	913.00
512.52	917.00
512.65	933.00
512.78	876.00
512.91	932.00
513.03	922.00
513.16	977.00
513.29	942.00
513.42	911.00
513.55	876.00
513.67	940.00
513.80	880.00
513.93	893.00
514.06	899.00
514.19	944.00
514.31	949.00
514.44	964.00
514.57	901.00
514.70	937.00
514.83	992.00
514.95	907.00
515.08	937.00
515.21	954.00
515.34	933.00
515.47	934.00
515.59	901.00
515.72	948.00
515.85	947.00
515.98	982.00
516.11	928.00
516.23	964.00
516.36	1010.00
516.49	946.00
516.62	945.00
516.75	999.00
516.87	999.00
517.00	899.00
517.13	948.00
517.26	983.00
517.39	958.00
517.51	868.00
517.64	910.00
517.77	1015.00
517.90	886.00
518.02	922.00
518.15	886.00
518.28	854.00
518.41	956.00
518.54	934.00
518.66	936.00
518.79	886.00
518.92	909.00
519.05	898.00
519.18	910.00
519.30	974.00
519.43	890.00
519.56	900.00
519.69	920.00
519.81	978.00
519.94	926.00
520.07	860.00
520.20	907.00
520.33	942.00
520.45	1018.00
520.58	934.00
520.71	965.00
520.84	996.00
520.96	959.00
521.09	940.00
521.22	908.00
521.35	958.00
521.48	965.00
521.60	918.00
521.73	927.00
521.86	1010.00
521.99	1045.00
522.11	948.00
522.24	941.00
522.37	967.00
522.50	968.00
522.62	991.00
522.75	894.00
522.88	975.00
523.01	917.00
523.14	967.00
523.26	954.00
523.39	1030.00
523.52	923.00
523.65	1033.00
523.77	976.00
523.90	942.00
524.03	915.00
524.16	909.00
524.28	914.00
524.41	929.00
524.54	930.00
524.67	891.00
524.79	922.00
524.92	963.00
525.05	1018.00
525.18	912.00
525.31	968.00
525.43	904.00
525.56	1043.00
525.69	932.00
525.82	885.00
525.94	971.00
526.07	983.00
526.20	971.00
526.33	985.00
526.45	1087.00
526.58	1050.00
526.71	951.00
526.84	950.00
526.96	965.00
527.09	902.00
527.22	935.00
527.35	929.00
527.47	906.00
527.60	1023.00
527.73	914.00
527.86	963.00
527.98	949.00
528.11	969.00
528.24	918.00
528.37	933.00
528.49	897.00
528.62	953.00
528.75	970.00
528.88	919.00
529.00	973.00
529.13	1006.00
529.26	940.00
529.39	985.00
529.51	1072.00
529.64	1049.00
529.77	916.00
529.90	930.00
530.02	926.00
530.15	920.00
530.28	882.00
530.40	898.00
530.53	936.00
530.66	982.00
530.79	928.00
530.91	953.00
531.04	951.00
531.17	955.00
531.30	938.00
531.42	948.00
531.55	947.00
531.68	1028.00
531.81	933.00
531.93	937.00
532.06	975.00
532.19	909.00
532.31	936.00
532.44	947.00
532.57	971.00
532.70	931.00
532.82	933.00
532.95	970.00
533.08	1012.00
533.21	991.00
533.33	926.00
533.46	933.00
533.59	942.00
533.71	1093.00
533.84	965.00
533.97	948.00
534.10	939.00
534.22	915.00
534.35	941.00
534.48	954.00
534.61	1001.00
534.73	888.00
534.86	909.00
534.99	956.00
535.11	1011.00
535.24	983.00
535.37	916.00
535.50	900.00
535.62	909.00
535.75	1015.00
535.88	963.00
536.00	924.00
536.13	932.00
536.26	931.00
536.39	930.00
536.51	898.00
536.64	982.00
536.77	959.00
536.89	934.00
537.02	965.00
537.15	961.00
537.28	957.00
537.40	964.00
537.53	928.00
537.66	1001.00
537.78	965.00
537.91	939.00
538.04	938.00
538.17	1004.00
538.29	1001.00
538.42	1037.00
538.55	1005.00
538.67	999.00
538.80	937.00
538.93	970.00
539.05	969.00
539.18	1033.00
539.31	1012.00
539.44	980.00
539.56	887.00
539.69	952.00
539.82	950.00
539.94	921.00
540.07	927.00
540.20	1015.00
540.32	939.00
540.45	962.00
540.58	941.00
540.71	1026.00
540.83	902.00
540.96	941.00
541.09	948.00
541.21	1052.00
541.34	1033.00
541.47	928.00
541.59	974.00
541.72	1049.00
541.85	1125.00
541.98	1021.00
542.10	969.00
542.23	998.00
542.36	1083.00
542.48	974.00
542.61	958.00
542.74	926.00
542.86	962.00
542.99	961.00
543.12	932.00
543.24	988.00
543.37	916.00
543.50	966.00
543.62	938.00
543.75	942.00
543.88	956.00
544.01	967.00
544.13	986.00
544.26	1003.00
544.39	950.00
544.51	931.00
544.64	907.00
544.77	998.00
544.89	949.00
545.02	971.00
545.15	940.00
545.27	1051.00
545.40	1042.00
545.53	989.00
545.65	977.00
545.78	894.00
545.91	923.00
546.03	965.00
546.16	959.00
546.29	947.00
546.41	925.00
546.54	927.00
546.67	944.00
546.79	1000.00
546.92	1045.00
547.05	920.00
547.17	974.00
547.30	952.00
547.43	1000.00
547.56	926.00
547.68	961.00
547.81	927.00
547.94	1006.00
548.06	951.00
548.19	923.00
548.32	1046.00
548.44	992.00
548.57	978.00
548.70	1012.00
548.82	1009.00
548.95	1007.00
549.08	951.00
549.20	954.00
549.33	1069.00
549.45	973.00
549.58	958.00
549.71	921.00
549.83	1029.00
549.96	927.00
550.09	957.00
550.21	956.00
550.34	982.00
550.47	945.00
550.59	953.00
550.72	895.00
550.85	981.00
550.97	1032.00
551.10	937.00
551.23	963.00
551.35	1059.00
551.48	1004.00
551.61	973.00
551.73	962.00
551.86	1047.00
551.99	1048.00
552.11	989.00
552.24	999.00
552.37	994.00
552.49	933.00
552.62	953.00
552.75	996.00
552.87	961.00
553.00	954.00
553.12	992.00
553.25	956.00
553.38	1005.00
553.50	1035.00
553.63	962.00
553.76	900.00
553.88	989.00
554.01	986.00
554.14	956.00
554.26	986.00
554.39	1048.00
554.52	971.00
554.64	967.00
554.77	946.00
554.89	1020.00
555.02	1021.00
555.15	969.00
555.27	980.00
555.40	1004.00
555.53	1044.00
555.65	971.00
555.78	923.00
555.91	1026.00
556.03	1052.00
556.16	947.00
556.29	993.00
556.41	1063.00
556.54	1058.00
556.66	988.00
556.79	966.00
556.92	1008.00
557.04	1014.00
557.17	952.00
557.30	943.00
557.42	970.00
557.55	977.00
557.67	1008.00
557.80	968.00
557.93	984.00
558.05	992.00
558.18	955.00
558.31	973.00
558.43	1034.00
558.56	994.00
558.68	971.00
558.81	952.00
558.94	980.00
559.06	1097.00
559.19	962.00
559.32	956.00
559.44	937.00
559.57	990.00
559.69	957.00
559.82	956.00
559.95	968.00
560.07	971.00
560.20	903.00
560.33	975.00
560.45	992.00
560.58	935.00
560.70	980.00
560.83	929.00
560.96	965.00
561.08	982.00
561.21	1012.00
561.33	957.00
561.46	939.00
561.59	1036.00
561.71	979.00
561.84	992.00
561.97	967.00
562.09	1024.00
562.22	970.00
562.34	962.00
562.47	1047.00
562.60	1015.00
562.72	998.00
562.85	1002.00
562.97	977.00
563.10	962.00
563.23	955.00
563.35	944.00
563.48	984.00
563.60	982.00
563.73	1000.00
563.86	951.00
563.98	954.00
564.11	980.00
564.23	987.00
564.36	1048.00
564.49	1010.00
564.61	1079.00
564.74	1001.00
564.86	976.00
564.99	1038.00
565.12	1013.00
565.24	1033.00
565.37	1051.00
565.49	1046.00
565.62	1070.00
565.75	1029.00
565.87	954.00
566.00	1128.00
566.12	1053.00
566.25	1009.00
566.38	1027.00
566.50	999.00
566.63	1063.00
566.75	985.00
566.88	968.00
567.01	975.00
567.13	997.00
567.26	983.00
567.38	962.00
567.51	1029.00
567.64	958.00
567.76	1015.00
567.89	1002.00
568.01	965.00
568.14	951.00
568.26	989.00
568.39	969.00
568.52	1002.00
568.64	1035.00
568.77	1001.00
568.89	972.00
569.02	959.00
569.15	1003.00
569.27	976.00
569.40	1009.00
569.52	1047.00
569.65	976.00
569.77	989.00
569.90	955.00
570.03	961.00
570.15	1073.00
570.28	989.00
570.40	988.00
570.53	999.00
570.66	1059.00
570.78	1044.00
570.91	1005.00
571.03	980.00
571.16	1006.00
571.28	949.00
571.41	932.00
571.54	961.00
571.66	947.00
571.79	977.00
571.91	961.00
572.04	956.00
572.16	998.00
572.29	1019.00
572.42	995.00
572.54	1023.00
572.67	979.00
572.79	994.00
572.92	990.00
573.04	1032.00
573.17	1038.00
573.29	1014.00
573.42	978.00
573.55	1041.00
573.67	1039.00
573.80	1001.00
573.92	968.00
574.05	1005.00
574.17	1067.00
574.30	975.00
574.43	984.00
574.55	975.00
574.68	1014.00
574.80	992.00
574.93	989.00
575.05	962.00
575.18	982.00
575.30	1004.00
575.43	1032.00
575.56	1047.00
575.68	1027.00
575.81	998.00
575.93	977.00
576.06	1008.00
576.18	1034.00
576.31	981.00
576.43	958.00
576.56	1115.00
576.69	1079.00
576.81	1028.00
576.94	974.00
577.06	991.00
577.19	1037.00
577.31	1021.00
577.44	1034.00
577.56	1076.00
577.69	1029.00
577.82	1046.00
577.94	980.00
578.07	958.00
578.19	1056.00
578.32	1049.00
578.44	988.00
578.57	981.00
578.69	1073.00
578.82	1032.00
578.94	1031.00
579.07	1051.00
579.19	1051.00
579.32	1020.00
579.45	1009.00
579.57	1000.00
579.70	966.00
579.82	1024.00
579.95	990.00
580.07	1064.00
580.20	1003.00
580.32	1006.00
580.45	1048.00
580.57	1048.00
580.70	1061.00
580.82	1022.00
580.95	1041.00
581.08	969.00
581.20	1081.00
581.33	996.00
581.45	1023.00
581.58	1031.00
581.70	1035.00
581.83	924.00
581.95	1020.00
582.08	1047.00
582.20	1011.00
582.33	1003.00
582.45	998.00
582.58	1009.00
582.70	1046.00
582.83	993.00
582.95	1017.00
583.08	1058.00
583.21	1069.00
583.33	1023.00
583.46	989.00
583.58	993.00
583.71	1044.00
583.83	1009.00
583.96	1041.00
584.08	1076.00
584.21	1057.00
584.33	1036.00
584.46	1009.00
584.58	976.00
584.71	1057.00
584.83	1041.00
584.96	999.00
585.08	978.00
585.21	1119.00
585.33	1086.00
585.46	1047.00
585.58	1049.00
585.71	990.00
585.83	1032.00
585.96	1047.00
586.08	1041.00
586.21	1032.00
586.33	1053.00
586.46	976.00
586.59	1046.00
586.71	983.00
586.84	1030.00
586.96	1030.00
587.09	963.00
587.21	1012.00
587.34	1045.00
587.46	997.00
587.59	966.00
587.71	1002.00
587.84	988.00
587.96	949.00
588.09	980.00
588.21	1043.00
588.34	1008.00
588.46	1035.00
588.59	1001.00
588.71	1049.00
588.84	1018.00
588.96	1004.00
589.09	1122.00
589.21	1019.00
589.34	998.00
589.46	1022.00
589.59	1021.00
589.71	1073.00
589.84	972.00
589.96	988.00
590.09	1006.00
590.21	1062.00
590.34	1038.00
590.46	1020.00
590.59	1001.00
590.71	1032.00
590.84	1066.00
590.96	978.00
591.09	1051.00
591.21	1018.00
591.34	1007.00
591.46	1008.00
591.59	1105.00
591.71	1069.00
591.83	1018.00
591.96	964.00
592.08	1016.00
592.21	1061.00
592.33	1011.00
592.46	1008.00
592.58	1032.00
592.71	1061.00
592.83	1105.00
592.96	1058.00
593.08	1086.00
593.21	979.00
593.33	976.00
593.46	1014.00
593.58	1021.00
593.71	1064.00
593.83	1069.00
593.96	987.00
594.08	1139.00
594.21	1018.00
594.33	1005.00
594.46	992.00
594.58	982.00
594.71	965.00
594.83	1036.00
594.96	1014.00
595.08	1182.00
595.20	1053.00
595.33	1025.00
595.45	995.00
595.58	1124.00
595.70	1041.00
595.83	1001.00
595.95	1036.00
596.08	1036.00
596.20	974.00
596.33	961.00
596.45	1008.00
596.58	987.00
596.70	990.00
596.83	995.00
596.95	1015.00
597.08	1043.00
597.20	984.00
597.32	1007.00
597.45	1042.00
597.57	1007.00
597.70	1055.00
597.82	998.00
597.95	1014.00
598.07	1035.00
598.20	1056.00
598.32	1028.00
598.45	1010.00
598.57	1056.00
598.70	1084.00
598.82	1014.00
598.94	1003.00
599.07	1086.00
599.19	1021.00
599.32	1016.00
599.44	941.00
599.57	1070.00
599.69	1046.00
599.82	996.00
599.94	985.00
600.07	1097.00
600.19	1054.00
600.31	996.00
600.44	1059.00
600.56	1167.00
600.69	1121.00
600.81	998.00
600.94	1024.00
601.06	1053.00
601.19	1080.00
601.31	1065.00
601.44	988.00
601.56	1086.00
601.68	1065.00
601.81	1041.00
601.93	1046.00
602.06	1068.00
602.18	981.00
602.31	1012.00
602.43	1088.00
602.56	1070.00
602.68	1038.00
602.80	1008.00
602.93	1049.00
603.05	1022.00
603.18	1060.00
603.30	995.00
603.43	1012.00
603.55	1029.00
603.68	1065.00
603.80	1041.00
603.92	1033.00
604.05	1015.00
604.17	1006.00
604.30	984.00
604.42	1003.00
604.55	1021.00
604.67	1059.00
604.79	1010.00
604.92	1021.00
605.04	1032.00
605.17	1013.00
605.29	1009.00
605.42	1010.00
605.54	1109.00
605.66	1047.00
605.79	1056.00
605.91	1040.00
606.04	1019.00
606.16	1008.00
606.29	1051.00
606.41	986.00
606.53	1040.00
606.66	987.00
606.78	1032.00
606.91	1007.00
607.03	1028.00
607.16	1022.00
607.28	997.00
607.40	1024.00
607.53	1043.00
607.65	993.00
607.78	1019.00
607.90	1032.00
608.03	1143.00
608.15	1053.00
608.27	1052.00
608.40	998.00
608.52	1052.00
608.65	1038.00
608.77	1075.00
608.89	1027.00
609.02	1124.00
609.14	1131.00
609.27	1073.00
609.39	1079.00
609.52	1032.00
609.64	982.00
609.76	992.00
609.89	1020.00
610.01	1096.00
610.14	1064.00
610.26	1037.00
610.38	990.00
610.51	1096.00
610.63	1045.00
610.76	991.00
610.88	1059.00
611.01	1104.00
611.13	1147.00
611.25	1079.00
611.38	1008.00
611.50	1041.00
611.63	1068.00
611.75	1036.00
611.87	1044.00
612.00	1022.00
612.12	1087.00
612.25	1022.00
612.37	1000.00
612.49	1101.00
612.62	1102.00
612.74	1113.00
612.87	1037.00
612.99	1044.00
613.11	986.00
613.24	1018.00
613.36	1012.00
613.49	1076.00
613.61	1051.00
613.73	1014.00
613.86	1094.00
613.98	1023.00
614.11	1076.00
614.23	1093.00
614.35	1108.00
614.48	1088.00
614.60	1062.00
614.72	1041.00
614.85	1047.00
614.97	1059.00
615.10	1061.00
615.22	1031.00
615.34	1052.00
615.47	1101.00
615.59	1033.00
615.72	1057.00
615.84	1067.00
615.96	1001.00
616.09	1131.00
616.21	1047.00
616.34	1032.00
616.46	1039.00
616.58	1069.00
616.71	1078.00
616.83	1084.00
616.95	1070.00
617.08	1063.00
617.20	1040.00
617.33	1012.00
617.45	1017.00
617.57	1070.00
617.70	1055.00
617.82	1037.00
617.95	1069.00
618.07	1140.00
618.19	1052.00
618.32	1059.00
618.44	1032.00
618.56	1004.00
618.69	974.00
618.81	989.00
618.94	1085.00
619.06	1046.00
619.18	1050.00
619.31	984.00
619.43	1028.00
619.55	1090.00
619.68	1059.00
619.80	995.00
619.92	1049.00
620.05	1178.00
620.17	1107.00
620.30	1039.00
620.42	1079.00
620.54	1104.00
620.67	1029.00
620.79	1037.00
620.91	1066.00
621.04	1108.00
621.16	1035.00
621.29	1019.00
621.41	999.00
621.53	1036.00
621.66	1030.00
621.78	1037.00
621.90	1089.00
622.03	1158.00
622.15	1056.00
622.27	1046.00
622.40	1071.00
622.52	1036.00
622.64	1029.00
622.77	1027.00
622.89	1053.00
623.02	1082.00
623.14	1062.00
623.26	1094.00
623.39	1070.00
623.51	1089.00
623.63	1031.00
623.76	1011.00
623.88	1128.00
624.00	1063.00
624.13	1026.00
624.25	1014.00
624.37	1020.00
624.50	1092.00
624.62	1082.00
624.75	1008.00
624.87	1004.00
624.99	1035.00
625.12	1014.00
625.24	1027.00
625.36	1110.00
625.49	1072.00
625.61	1066.00
625.73	1043.00
625.86	1101.00
625.98	1064.00
626.10	1007.00
626.23	982.00
626.35	1069.00
626.47	1032.00
626.60	1005.00
626.72	1013.00
626.84	1033.00
626.97	1074.00
627.09	1048.00
627.21	1031.00
627.34	1172.00
627.46	1153.00
627.58	1053.00
627.71	1081.00
627.83	1100.00
627.95	1021.00
628.08	1042.00
628.20	1057.00
628.32	1015.00
628.45	979.00
628.57	990.00
628.69	1003.00
628.82	1070.00
628.94	1108.00
629.06	1044.00
629.19	1040.00
629.31	1101.00
629.43	1021.00
629.56	1055.00
629.68	1067.00
629.80	1111.00
629.93	1017.00
630.05	1017.00
630.17	1015.00
630.30	1048.00
630.42	1033.00
630.54	1086.00
630.67	1075.00
630.79	1045.00
630.91	1196.00
631.04	1057.00
631.16	1054.00
631.28	1055.00
631.41	1010.00
631.53	1015.00
631.65	1062.00
631.78	1066.00
631.90	1062.00
632.02	1042.00
632.14	983.00
632.27	1147.00
632.39	1086.00
632.51	1034.00
632.64	1114.00
632.76	1073.00
632.88	1060.00
633.01	1087.00
633.13	1044.00
633.25	1057.00
633.38	1167.00
633.50	1010.00
633.62	993.00
633.75	998.00
633.87	973.00
633.99	1070.00
634.11	1018.00
634.24	1042.00
634.36	1041.00
634.48	1037.00
634.61	1038.00
634.73	1069.00
634.85	1030.00
634.98	1019.00
635.10	1026.00
635.22	1071.00
635.35	1175.00
635.47	1073.00
635.59	1055.00
635.71	1091.00
635.84	1094.00
635.96	1052.00
636.08	1106.00
636.21	1033.00
636.33	1066.00
636.45	1050.00
636.58	1036.00
636.70	1005.00
636.82	1074.00
636.94	1033.00
637.07	998.00
637.19	1092.00
637.31	1086.00
637.44	1094.00
637.56	987.00
637.68	1083.00
637.81	1083.00
637.93	1060.00
638.05	1022.00
638.17	1111.00
638.30	1204.00
638.42	1056.00
638.54	1020.00
638.67	1053.00
638.79	1058.00
638.91	1024.00
639.03	1037.00
639.16	1054.00
639.28	1050.00
639.40	1052.00
639.53	1037.00
639.65	1097.00
639.77	1065.00
639.89	1084.00
640.02	1051.00
640.14	1065.00
640.26	1011.00
640.39	1084.00
640.51	1039.00
640.63	1095.00
640.75	1098.00
640.88	1053.00
641.00	1066.00
641.12	1030.00
641.24	1155.00
641.37	1040.00
641.49	1001.00
641.61	1171.00
641.74	1036.00
641.86	1076.00
641.98	1026.00
642.10	1069.00
642.23	1107.00
642.35	1039.00
642.47	1085.00
642.60	1093.00
642.72	1110.00
642.84	1013.00
642.96	1010.00
643.09	1030.00
643.21	1027.00
643.33	1029.00
643.45	1062.00
643.58	1113.00
643.70	1136.00
643.82	1061.00
643.94	1052.00
644.07	1074.00
644.19	1070.00
644.31	1059.00
644.44	1074.00
644.56	1056.00
644.68	1041.00
644.80	1023.00
644.93	1024.00
645.05	1051.00
645.17	1062.00
645.29	1080.00
645.42	1072.00
645.54	1063.00
645.66	1082.00
645.78	1051.00
645.91	1035.00
646.03	1101.00
646.15	1116.00
646.27	1042.00
646.40	1080.00
646.52	1132.00
646.64	1121.00
646.76	1055.00
646.89	994.00
647.01	1102.00
647.13	1082.00
647.25	1096.00
647.38	1046.00
647.50	1038.00
647.62	1123.00
647.74	1017.00
647.87	1007.00
647.99	1088.00
648.11	1098.00
648.23	1035.00
648.36	1017.00
648.48	1144.00
648.60	1096.00
648.72	1060.00
648.85	1033.00
648.97	1124.00
649.09	1078.00
649.21	1042.00
649.34	1079.00
649.46	1098.00
649.58	1104.00
649.70	1096.00
649.83	1045.00
649.95	1127.00
650.07	1111.00
650.19	1106.00
650.32	1066.00
650.44	1143.00
650.56	1102.00
650.68	1048.00
650.81	1040.00
650.93	1061.00
651.05	1143.00
651.17	1047.00
651.29	1090.00
651.42	1061.00
651.54	1100.00
651.66	1052.00
651.78	1053.00
651.91	1099.00
652.03	1198.00
652.15	1084.00
652.27	1054.00
652.40	1093.00
652.52	1062.00
652.64	1058.00
652.76	1047.00
652.88	1189.00
653.01	1094.00
653.13	1038.00
653.25	1003.00
653.37	1121.00
653.50	1130.00
653.62	1101.00
653.74	1014.00
653.86	1144.00
653.98	1113.00
654.11	1022.00
654.23	1052.00
654.35	1071.00
654.47	1212.00
654.60	1052.00
654.72	1061.00
654.84	1041.00
654.96	1130.00
655.08	1051.00
655.21	1086.00
655.33	1077.00
655.45	1125.00
655.57	1063.00
655.70	1077.00
655.82	1103.00
655.94	1165.00
656.06	1112.00
656.18	1030.00
656.31	1141.00
656.43	1108.00
656.55	1043.00
656.67	1068.00
656.79	1094.00
656.92	1141.00
657.04	1094.00
657.16	1065.00
657.28	1213.00
657.40	1093.00
657.53	1107.00
657.65	1066.00
657.77	1146.00
657.89	1159.00
658.01	1061.00
658.14	1048.00
658.26	1118.00
658.38	1068.00
658.50	1035.00
658.62	1039.00
658.75	1209.00
658.87	1133.00
658.99	1135.00
659.11	1045.00
659.23	1135.00
659.36	1184.00
659.48	1130.00
659.60	1102.00
659.72	1104.00
659.84	1101.00
659.97	1096.00
660.09	1100.00
660.21	1198.00
660.33	1151.00
660.45	1036.00
660.58	1006.00
660.70	1054.00
660.82	1068.00
660.94	1018.00
661.06	1062.00
661.19	1155.00
661.31	1141.00
661.43	1084.00
661.55	1093.00
661.67	1137.00
661.80	1145.00
661.92	1075.00
662.04	1074.00
662.16	1091.00
662.28	1153.00
662.40	1085.00
662.53	1093.00
662.65	1126.00
662.77	1083.00
662.89	1116.00
663.01	1074.00
663.14	1097.00
663.26	1120.00
663.38	1082.00
663.50	1038.00
663.62	1064.00
663.74	1077.00
663.87	1075.00
663.99	1110.00
664.11	1117.00
664.23	1211.00
664.35	1084.00
664.48	1083.00
664.60	1083.00
664.72	1079.00
664.84	1032.00
664.96	1096.00
665.08	1148.00
665.21	1129.00
665.33	1138.00
665.45	1036.00
665.57	1105.00
665.69	1175.00
665.81	1081.00
665.94	1045.00
666.06	1064.00
666.18	1134.00
666.30	1078.00
666.42	1078.00
666.54	1128.00
666.67	1157.00
666.79	1082.00
666.91	1121.00
667.03	1077.00
667.15	1062.00
667.27	1077.00
667.40	1059.00
667.52	1096.00
667.64	1147.00
667.76	1086.00
667.88	1049.00
668.00	1129.00
668.13	1148.00
668.25	1058.00
668.37	1083.00
668.49	1073.00
668.61	1155.00
668.73	1107.00
668.85	1106.00
668.98	1098.00
669.10	1120.00
669.22	1078.00
669.34	1096.00
669.46	1134.00
669.58	1102.00
669.71	1113.00
669.83	1091.00
669.95	1104.00
670.07	1131.00
670.19	1089.00
670.31	1088.00
670.43	1083.00
670.56	1095.00
670.68	1160.00
670.80	1105.00
670.92	1125.00
671.04	1185.00
671.16	1075.00
671.28	1082.00
671.41	1094.00
671.53	1138.00
671.65	1081.00
671.77	1095.00
671.89	1252.00
672.01	1224.00
672.13	1134.00
672.26	1072.00
672.38	1134.00
672.50	1092.00
672.62	1095.00
672.74	1132.00
672.86	1097.00
672.98	1107.00
673.11	1111.00
673.23	1126.00
673.35	1189.00
673.47	1109.00
673.59	1092.00
673.71	1074.00
673.83	1126.00
673.96	1217.00
674.08	1102.00
674.20	1051.00
674.32	1098.00
674.44	1113.00
674.56	1123.00
674.68	1139.00
674.80	1137.00
674.93	1097.00
675.05	1081.00
675.17	1106.00
675.29	1143.00
675.41	1156.00
675.53	1102.00
675.65	1103.00
675.77	1124.00
675.90	1182.00
676.02	1104.00
676.14	1075.00
676.26	1213.00
676.38	1237.00
676.50	1117.00
676.62	1133.00
676.74	1089.00
676.87	1099.00
676.99	1127.00
677.11	1147.00
677.23	1119.00
677.35	1132.00
677.47	1066.00
677.59	1097.00
677.71	1163.00
677.83	1168.00
677.96	1136.00
678.08	1114.00
678.20	1109.00
678.32	1060.00
678.44	1094.00
678.56	1100.00
678.68	1269.00
678.80	1163.00
678.93	1084.00
679.05	1115.00
679.17	1125.00
679.29	1169.00
679.41	1108.00
679.53	1079.00
679.65	1099.00
679.77	1134.00
679.89	1102.00
680.01	1156.00
680.14	1164.00
680.26	1062.00
680.38	1092.00
680.50	1141.00
680.62	1239.00
680.74	1143.00
680.86	1093.00
680.98	1120.00
681.10	1139.00
681.22	1233.00
681.35	1101.00
681.47	1114.00
681.59	1098.00
681.71	1209.00
681.83	1116.00
681.95	1091.00
682.07	1188.00
682.19	1137.00
682.31	1110.00
682.43	1081.00
682.56	1150.00
682.68	1078.00
682.80	1074.00
682.92	1123.00
683.04	1103.00
683.16	1104.00
683.28	1074.00
683.40	1155.00
683.52	1118.00
683.64	1160.00
683.76	1090.00
683.89	1088.00
684.01	1124.00
684.13	1174.00
684.25	1130.00
684.37	1126.00
684.49	1152.00
684.61	1117.00
684.73	1112.00
684.85	1122.00
684.97	1094.00
685.09	1190.00
685.21	1093.00
685.34	1106.00
685.46	1262.00
685.58	1167.00
685.70	1146.00
685.82	1154.00
685.94	1088.00
686.06	1073.00
686.18	1087.00
686.30	1123.00
686.42	1082.00
686.54	1170.00
686.66	1077.00
686.79	1186.00
686.91	1136.00
687.03	1265.00
687.15	1148.00
687.27	1125.00
687.39	1107.00
687.51	1200.00
687.63	1133.00
687.75	1158.00
687.87	1153.00
687.99	1202.00
688.11	1085.00
688.23	1143.00
688.35	1177.00
688.48	1181.00
688.60	1093.00
688.72	1117.00
688.84	1133.00
688.96	1180.00
689.08	1129.00
689.20	1129.00
689.32	1268.00
689.44	1159.00
689.56	1104.00
689.68	1093.00
689.80	1124.00
689.92	1099.00
690.04	1096.00
690.16	1149.00
690.28	1131.00
690.41	1141.00
690.53	1085.00
690.65	1146.00
690.77	1175.00
690.89	1172.00
691.01	1155.00
691.13	1103.00
691.25	1087.00
691.37	1121.00
691.49	1081.00
691.61	1078.00
691.73	1232.00
691.85	1161.00
691.97	1110.00
692.09	1081.00
692.21	1150.00
692.33	1193.00
692.45	1129.00
692.57	1118.00
692.70	1142.00
692.82	1181.00
692.94	1063.00
693.06	1101.00
693.18	1144.00
693.30	1133.00
693.42	1125.00
693.54	1123.00
693.66	1128.00
693.78	1160.00
693.90	1113.00
694.02	1120.00
694.14	1167.00
694.26	1130.00
694.38	1138.00
694.50	1139.00
694.62	1162.00
694.74	1099.00
694.86	1083.00
694.98	1134.00
695.10	1159.00
695.22	1182.00
695.34	1096.00
695.46	1100.00
695.58	1127.00
695.71	1155.00
695.83	1113.00
695.95	1136.00
696.07	1216.00
696.19	1090.00
696.31	1122.00
696.43	1092.00
696.55	1220.00
696.67	1154.00
696.79	1112.00
696.91	1132.00
697.03	1110.00
697.15	1222.00
697.27	1138.00
697.39	1122.00
697.51	1197.00
697.63	1122.00
697.75	1116.00
697.87	1136.00
697.99	1073.00
698.11	1069.00
698.23	1093.00
698.35	1101.00
698.47	1105.00
698.59	1163.00
698.71	1119.00
698.83	1173.00
698.95	1106.00
699.07	1166.00
699.19	1111.00
699.31	1137.00
699.43	1099.00
699.55	1169.00
699.67	1132.00
699.79	1110.00
699.91	1115.00
700.03	1141.00
700.15	1134.00
700.27	1101.00
700.39	1126.00
700.51	1082.00
700.63	1095.00
700.75	1115.00
700.87	1169.00
700.99	1113.00
701.11	1142.00
701.24	1127.00
701.36	1166.00
701.48	1170.00
701.60	1158.00
701.72	1091.00
701.84	1195.00
701.96	1172.00
702.08	1148.00
702.20	1225.00
702.32	1170.00
702.44	1176.00
702.56	1140.00
702.68	1125.00
702.80	1150.00
702.92	1257.00
703.04	1208.00
703.16	1155.00
703.28	1154.00
703.40	1137.00
703.52	1145.00
703.64	1160.00
703.76	1162.00
703.88	1135.00
704.00	1110.00
704.12	1136.00
704.24	1196.00
704.36	1152.00
704.48	1162.00
704.60	1104.00
704.72	1157.00
704.84	1121.00
704.96	1154.00
705.07	1157.00
705.19	1106.00
705.31	1134.00
705.43	1187.00
705.55	1120.00
705.67	1167.00
705.79	1144.00
705.91	1067.00
706.03	1139.00
706.15	1162.00
706.27	1127.00
706.39	1120.00
706.51	1127.00
706.63	1144.00
706.75	1198.00
706.87	1149.00
706.99	1194.00
707.11	1165.00
707.23	1128.00
707.35	1167.00
707.47	1128.00
707.59	1185.00
707.71	1207.00
707.83	1141.00
707.95	1201.00
708.07	1148.00
708.19	1270.00
708.31	1163.00
708.43	1105.00
708.55	1168.00
708.67	1218.00
708.79	1147.00
708.91	1169.00
709.03	1171.00
709.15	1206.00
709.27	1113.00
709.39	1169.00
709.51	1143.00
709.63	1165.00
709.75	1167.00
709.87	1115.00
709.99	1189.00
710.11	1124.00
710.23	1112.00
710.35	1106.00
710.47	1252.00
710.58	1216.00
710.70	1200.00
710.82	1225.00
710.94	1132.00
711.06	1159.00
711.18	1158.00
711.30	1136.00
711.42	1194.00
711.54	1148.00
711.66	1181.00
711.78	1125.00
711.90	1182.00
712.02	1228.00
712.14	1121.00
712.26	1114.00
712.38	1213.00
712.50	1231.00
712.62	1145.00
712.74	1151.00
712.86	1142.00
712.98	1201.00
713.10	1124.00
713.22	1135.00
713.34	1176.00
713.45	1150.00
713.57	1156.00
713.69	1119.00
713.81	1137.00
713.93	1174.00
714.05	1161.00
714.17	1092.00
714.29	1224.00
714.41	1220.00
714.53	1132.00
714.65	1182.00
714.77	1176.00
714.89	1117.00
715.01	1224.00
715.13	1134.00
715.25	1173.00
715.37	1124.00
715.49	1118.00
715.61	1171.00
715.72	1190.00
715.84	1211.00
715.96	1166.00
716.08	1147.00
716.20	1225.00
716.32	1214.00
716.44	1165.00
716.56	1156.00
716.68	1179.00
716.80	1249.00
716.92	1202.00
717.04	1148.00
717.16	1182.00
717.28	1158.00
717.40	1150.00
717.52	1155.00
717.63	1141.00
717.75	1159.00
717.87	1164.00
717.99	1176.00
718.11	1149.00
718.23	1199.00
718.35	1171.00
718.47	1159.00
718.59	1106.00
718.71	1154.00
718.83	1127.00
718.95	1170.00
719.07	1120.00
719.19	1162.00
719.30	1147.00
719.42	1164.00
719.54	1169.00
719.66	1167.00
719.78	1166.00
719.90	1098.00
720.02	1170.00
720.14	1186.00
720.26	1214.00
720.38	1198.00
720.50	1156.00
720.62	1087.00
720.74	1165.00
720.85	1129.00
720.97	1216.00
721.09	1242.00
721.21	1153.00
721.33	1216.00
721.45	1169.00
721.57	1185.00
721.69	1136.00
721.81	1102.00
721.93	1226.00
722.05	1158.00
722.16	1119.00
722.28	1106.00
722.40	1152.00
722.52	1230.00
722.64	1232.00
722.76	1140.00
722.88	1205.00
723.00	1198.00
723.12	1165.00
723.24	1149.00
723.36	1089.00
723.47	1205.00
723.59	1174.00
723.71	1154.00
723.83	1199.00
723.95	1160.00
724.07	1145.00
724.19	1176.00
724.31	1253.00
724.43	1143.00
724.55	1097.00
724.66	1125.00
724.78	1300.00
724.90	1125.00
725.02	1123.00
725.14	1165.00
725.26	1174.00
725.38	1092.00
725.50	1155.00
725.62	1200.00
725.74	1150.00
725.85	1152.00
725.97	1164.00
726.09	1224.00
726.21	1495.00
726.33	1209.00
726.45	1172.00
726.57	1146.00
726.69	1181.00
726.81	1171.00
726.92	1164.00
727.04	1169.00
727.16	1182.00
727.28	1156.00
727.40	1157.00
727.52	1155.00
727.64	1312.00
727.76	1284.00
727.88	1193.00
727.99	1118.00
728.11	1117.00
728.23	1172.00
728.35	1161.00
728.47	1149.00
728.59	1161.00
728.71	1196.00
728.83	1150.00
728.94	1205.00
729.06	1285.00
729.18	1217.00
729.30	1202.00
729.42	1176.00
729.54	1261.00
729.66	1272.00
729.78	1162.00
729.90	1173.00
730.01	1139.00
730.13	1090.00
730.25	1169.00
730.37	1160.00
730.49	1194.00
730.61	1218.00
730.73	1184.00
730.84	1211.00
730.96	1174.00
731.08	1196.00
731.20	1171.00
731.32	1192.00
731.44	1343.00
731.56	1191.00
731.68	1131.00
731.79	1168.00
731.91	1128.00
732.03	1162.00
732.15	1170.00
732.27	1157.00
732.39	1159.00
732.51	1219.00
732.62	1159.00
732.74	1169.00
732.86	1246.00
732.98	1185.00
733.10	1163.00
733.22	1185.00
733.34	1204.00
733.45	1141.00
733.57	1178.00
733.69	1122.00
733.81	1181.00
733.93	1201.00
734.05	1098.00
734.17	1163.00
734.28	1192.00
734.40	1187.00
734.52	1156.00
734.64	1168.00
734.76	1237.00
734.88	1191.00
735.00	1140.00
735.11	1182.00
735.23	1231.00
735.35	1157.00
735.47	1124.00
735.59	1207.00
735.71	1177.00
735.83	1195.00
735.94	1192.00
736.06	1193.00
736.18	1230.00
736.30	1243.00
736.42	1213.00
736.54	1189.00
736.65	1204.00
736.77	1329.00
736.89	1247.00
737.01	1193.00
737.13	1290.00
737.25	1089.00
737.36	1117.00
737.48	1157.00
737.60	1186.00
737.72	1174.00
737.84	1170.00
737.96	1232.00
738.08	1164.00
738.19	1274.00
738.31	1177.00
738.43	1181.00
738.55	1175.00
738.67	1191.00
738.79	1149.00
738.90	1170.00
739.02	1188.00
739.14	1166.00
739.26	1198.00
739.38	1163.00
739.50	1206.00
739.61	1172.00
739.73	1166.00
739.85	1155.00
739.97	1185.00
740.09	1257.00
740.20	1136.00
740.32	1203.00
740.44	1226.00
740.56	1132.00
740.68	1166.00
740.80	1176.00
740.91	1190.00
741.03	1252.00
741.15	1237.00
741.27	1159.00
741.39	1219.00
741.51	1195.00
741.62	1212.00
741.74	1183.00
741.86	1200.00
741.98	1167.00
742.10	1193.00
742.21	1197.00
742.33	1191.00
742.45	1147.00
742.57	1243.00
742.69	1177.00
742.80	1195.00
742.92	1177.00
743.04	1181.00
743.16	1154.00
743.28	1245.00
743.40	1149.00
743.51	1153.00
743.63	1150.00
743.75	1195.00
743.87	1202.00
743.99	1193.00
744.10	1149.00
744.22	1162.00
744.34	1156.00
744.46	1217.00
744.58	1198.00
744.69	1100.00
744.81	1216.00
744.93	1138.00
745.05	1130.00
745.17	1248.00
745.28	1244.00
745.40	1194.00
745.52	1155.00
745.64	1192.00
745.76	1234.00
745.87	1178.00
745.99	1163.00
746.11	1191.00
746.23	1140.00
746.35	1180.00
746.46	1152.00
746.58	1283.00
746.70	1188.00
746.82	1179.00
746.94	1174.00
747.05	1153.00
747.17	1132.00
747.29	1142.00
747.41	1176.00
747.53	1328.00
747.64	1158.00
747.76	1220.00
747.88	1229.00
748.00	1230.00
748.12	1199.00
748.23	1175.00
748.35	1190.00
748.47	1245.00
748.59	1241.00
748.70	1157.00
748.82	1137.00
748.94	1158.00
749.06	1160.00
749.18	1174.00
749.29	1124.00
749.41	1189.00
749.53	1183.00
749.65	1157.00
749.76	1209.00
749.88	1168.00
750.00	1208.00
750.12	1228.00
750.24	1187.00
750.35	1169.00
750.47	1131.00
750.59	1186.00
750.71	1170.00
750.82	1208.00
750.94	1166.00
751.06	1168.00
751.18	1142.00
751.30	1210.00
751.41	1218.00
751.53	1212.00
751.65	1167.00
751.77	1148.00
751.88	1188.00
752.00	1216.00
752.12	1113.00
752.24	1237.00
752.35	1190.00
752.47	1217.00
752.59	1209.00
752.71	1268.00
752.83	1153.00
752.94	1241.00
753.06	1157.00
753.18	1185.00
753.30	1143.00
753.41	1102.00
753.53	1152.00
753.65	1169.00
753.77	1223.00
753.88	1147.00
754.00	1166.00
754.12	1191.00
754.24	1268.00
754.35	1145.00
754.47	1113.00
754.59	1194.00
754.71	1194.00
754.82	1165.00
754.94	1164.00
755.06	1233.00
755.18	1204.00
755.29	1202.00
755.41	1181.00
755.53	1216.00
755.65	1152.00
755.76	1191.00
755.88	1183.00
756.00	1235.00
756.12	1173.00
756.23	1084.00
756.35	1134.00
756.47	1217.00
756.59	1159.00
756.70	1134.00
756.82	1150.00
756.94	1138.00
757.06	1197.00
757.17	1197.00
757.29	1137.00
757.41	1132.00
757.53	1190.00
757.64	1188.00
757.76	1179.00
757.88	1193.00
758.00	1207.00
758.11	1147.00
758.23	1148.00
758.35	1200.00
758.47	1117.00
758.58	1186.00
758.70	1124.00
758.82	1160.00
758.94	1159.00
759.05	1145.00
759.17	1112.00
759.29	1156.00
759.40	1248.00
759.52	1133.00
759.64	1138.00
759.76	1177.00
759.87	1179.00
759.99	1175.00
760.11	1129.00
760.23	1169.00
760.34	1188.00
760.46	1194.00
760.58	1159.00
760.70	1188.00
760.81	1224.00
760.93	1167.00
761.05	1194.00
761.16	1201.00
761.28	1169.00
761.40	1149.00
761.52	1133.00
761.63	1224.00
761.75	1181.00
761.87	1153.00
761.98	1104.00
762.10	1171.00
762.22	1175.00
762.34	1200.00
762.45	1154.00
762.57	1199.00
762.69	1302.00
762.81	1158.00
762.92	1178.00
763.04	1111.00
763.16	1192.00
763.27	1178.00
763.39	1129.00
763.51	1218.00
763.63	1190.00
763.74	1130.00
763.86	1122.00
763.98	1134.00
764.09	1156.00
764.21	1170.00
764.33	1128.00
764.44	1121.00
764.56	1156.00
764.68	1124.00
764.80	1154.00
764.91	1113.00
765.03	1256.00
765.15	1164.00
765.26	1144.00
765.38	1113.00
765.50	1190.00
765.62	1166.00
765.73	1163.00
765.85	1159.00
765.97	1105.00
766.08	1130.00
766.20	1150.00
766.32	1183.00
766.43	1207.00
766.55	1171.00
766.67	1135.00
766.79	1174.00
766.90	1126.00
767.02	1094.00
767.14	1105.00
767.25	1121.00
767.37	1242.00
767.49	1171.00
767.60	1148.00
767.72	1189.00
767.84	1167.00
767.95	1122.00
768.07	1109.00
768.19	1178.00
768.31	1174.00
768.42	1167.00
768.54	1137.00
768.66	1155.00
768.77	1190.00
768.89	1154.00
769.01	1132.00
769.12	1170.00
769.24	1164.00
769.36	1117.00
769.47	1114.00
769.59	1108.00
769.71	1182.00
769.82	1131.00
769.94	1144.00
770.06	1099.00
770.17	1185.00
770.29	1147.00
770.41	1168.00
770.53	1172.00
770.64	1117.00
770.76	1150.00
770.88	1162.00
770.99	1198.00
771.11	1116.00
771.23	1144.00
771.34	1153.00
771.46	1251.00
771.58	1217.00
771.69	1170.00
771.81	1139.00
771.93	1198.00
772.04	1113.00
772.16	1183.00
772.28	1148.00
772.39	1198.00
772.51	1126.00
772.63	1134.00
772.74	1136.00
772.86	1137.00
772.98	1287.00
773.09	1116.00
773.21	1128.00
773.33	1159.00
773.44	1170.00
773.56	1141.00
773.68	1122.00
773.79	1185.00
773.91	1136.00
774.03	1129.00
774.14	1128.00
774.26	1193.00
774.38	1123.00
774.49	1078.00
774.61	1140.00
774.73	1128.00
774.84	1124.00
774.96	1119.00
775.08	1124.00
775.19	1151.00
775.31	1207.00
775.43	1151.00
775.54	1117.00
775.66	1098.00
775.77	1198.00
775.89	1102.00
776.01	1175.00
776.12	1175.00
776.24	1126.00
776.36	1090.00
776.47	1108.00
776.59	1160.00
776.71	1177.00
776.82	1046.00
776.94	1072.00
777.06	1122.00
777.17	1213.00
777.29	1106.00
777.41	1094.00
777.52	1165.00
777.64	1117.00
777.75	1156.00
777.87	1082.00
777.99	1107.00
778.10	1167.00
778.22	1110.00
778.34	1137.00
778.45	1110.00
778.57	1169.00
778.69	1163.00
778.80	1131.00
778.92	1217.00
779.04	1150.00
779.15	1111.00
779.27	1153.00
779.38	1193.00
779.50	1191.00
779.62	1080.00
779.73	1126.00
779.85	1088.00
779.97	1230.00
780.08	1146.00
780.20	1134.00
780.31	1145.00
780.43	1180.00
780.55	1116.00
780.66	1126.00
780.78	1152.00
780.90	1217.00
781.01	1099.00
781.13	1132.00
781.25	1122.00
781.36	1172.00
781.48	1104.00
781.59	1107.00
781.71	1157.00
781.83	1152.00
781.94	1112.00
782.06	1097.00
782.18	1157.00
782.29	1108.00
782.41	1051.00
782.52	1148.00
782.64	1175.00
782.76	1131.00
782.87	1145.00
782.99	1115.00
783.10	1264.00
783.22	1267.00
783.34	1132.00
783.45	1138.00
783.57	1128.00
783.69	1107.00
783.80	1106.00
783.92	1136.00
784.03	1114.00
784.15	1101.00
784.27	1111.00
784.38	1123.00
784.50	1122.00
784.61	1142.00
784.73	1072.00
784.85	1105.00
784.96	1088.00
785.08	1186.00
785.19	1161.00
785.31	1107.00
785.43	1098.00
785.54	1068.00
785.66	1143.00
785.77	1107.00
785.89	1139.00
786.01	1050.00
786.12	1107.00
786.24	1111.00
786.35	1207.00
786.47	1113.00
786.59	1081.00
786.70	1066.00
786.82	1113.00
786.93	1117.00
787.05	1096.00
787.17	1118.00
787.28	1092.00
787.40	1109.00
787.51	1109.00
787.63	1141.00
787.75	1067.00
787.86	1123.00
787.98	1129.00
788.09	1081.00
788.21	1136.00
788.33	1138.00
788.44	1134.00
788.56	1093.00
788.67	1138.00
788.79	1090.00
788.91	1108.00
789.02	1057.00
789.14	1100.00
789.25	1205.00
789.37	1156.00
789.48	1072.00
789.60	1129.00
789.72	1066.00
789.83	1124.00
789.95	1094.00
790.06	1050.00
790.18	1061.00
790.30	1136.00
790.41	1129.00
790.53	1090.00
790.64	1055.00
790.76	1054.00
790.87	1088.00
790.99	1108.00
791.11	1112.00
791.22	1085.00
791.34	1090.00
791.45	1140.00
791.57	1122.00
791.68	1085.00
791.80	1058.00
791.92	1126.00
792.03	1080.00
792.15	1026.00
792.26	1058.00
792.38	1036.00
792.49	1120.00
792.61	1071.00
792.73	1104.00
792.84	1077.00
792.96	1184.00
793.07	1070.00
793.19	1912.00
793.30	1168.00
793.42	1121.00
793.54	1004.00
793.65	1017.00
793.77	1214.00
793.88	1084.00
794.00	1027.00
794.11	1099.00
794.23	1026.00
794.34	1109.00
794.46	1024.00
794.58	1058.00
794.69	1183.00
794.81	1181.00
794.92	1041.00
795.04	1058.00
795.15	1163.00
795.27	1125.00
795.39	1094.00
795.50	1042.00
795.62	1058.00
795.73	1057.00
795.85	1061.00
795.96	1104.00
796.08	1141.00
796.19	1058.00
796.31	1071.00
796.42	1034.00
796.54	1029.00
796.66	1120.00
796.77	1035.00
796.89	1028.00
797.00	1140.00
797.12	1000.00
797.23	1050.00
797.35	1079.00
797.46	1117.00
797.58	1147.00
797.69	1097.00
797.81	1046.00
797.93	1071.00
798.04	1048.00
798.16	1059.00
798.27	1093.00
798.39	1036.00
798.50	1040.00
798.62	1028.00
798.73	1039.00
798.85	1165.00
798.96	1082.00
799.08	1098.00
799.19	1090.00
799.31	1094.00
799.43	1069.00
799.54	1044.00
799.66	1082.00
799.77	1101.00
799.89	1020.00
800.00	1001.00
800.12	1055.00
800.23	1101.00
800.35	1145.00
800.46	1008.00
800.58	1000.00
800.69	1064.00
800.81	1025.00
800.92	1019.00
801.04	1076.00
801.16	1011.00
801.27	1003.00
801.39	1037.00
801.50	1032.00
801.62	1036.00
801.73	1106.00
801.85	1080.00
801.96	1020.00
802.08	1116.00
802.19	1107.00
802.31	1039.00
802.42	1056.00
802.54	1141.00
802.65	1115.00
802.77	1015.00
802.88	1069.00
803.00	1012.00
803.11	1158.00
803.23	1063.00
803.34	1056.00
803.46	1079.00
803.57	1026.00
803.69	1077.00
803.80	1021.00
803.92	1124.00
804.03	1048.00
804.15	1065.00
804.26	1076.00
804.38	1097.00
804.50	1032.00
804.61	1036.00
804.73	1044.00
804.84	1056.00
804.96	968.00
805.07	1044.00
805.19	1018.00
805.30	1079.00
805.42	1096.00
805.53	1038.00
805.65	1013.00
805.76	983.00
805.88	1041.00
805.99	1060.00
806.11	1068.00
806.22	1031.00
806.34	1033.00
806.45	1056.00
806.57	1039.00
806.68	1073.00
806.80	965.00
806.91	1016.00
807.03	996.00
807.14	968.00
807.26	980.00
807.37	977.00
807.49	1032.00
807.60	988.00
807.72	1103.00
807.83	1112.00
807.95	1030.00
808.06	1050.00
808.17	1032.00
808.29	1061.00
808.40	977.00
808.52	1014.00
808.63	1044.00
808.75	1032.00
808.86	1016.00
808.98	1044.00
809.09	993.00
809.21	1041.00
809.32	996.00
809.44	1050.00
809.55	973.00
809.67	1020.00
809.78	982.00
809.90	1067.00
810.01	1090.00
810.13	995.00
810.24	1024.00
810.36	953.00
810.47	980.00
810.59	980.00
810.70	1021.00
810.82	1055.00
810.93	964.00
811.05	969.00
811.16	953.00
811.27	960.00
811.39	995.00
811.50	1026.00
811.62	926.00
811.73	911.00
811.85	1007.00
811.96	979.00
812.08	1008.00
812.19	1010.00
812.31	1012.00
812.42	960.00
812.54	963.00
812.65	1050.00
812.77	1027.00
812.88	1028.00
813.00	1024.00
813.11	1013.00
813.22	939.00
813.34	940.00
813.45	976.00
813.57	1069.00
813.68	1072.00
813.80	985.00
813.91	934.00
814.03	963.00
814.14	1052.00
814.26	939.00
814.37	958.00
814.49	960.00
814.60	925.00
814.71	920.00
814.83	952.00
814.94	918.00
815.06	934.00
815.17	957.00
815.29	933.00
815.40	916.00
815.52	1041.00
815.63	941.00
815.75	934.00
815.86	959.00
815.97	901.00
816.09	942.00
816.20	960.00
816.32	964.00
816.43	895.00
816.55	945.00
816.66	922.00
816.78	1041.00
816.89	943.00
817.00	916.00
817.12	916.00
817.23	918.00
817.35	978.00
817.46	938.00
817.58	888.00
817.69	1067.00
817.81	938.00
817.92	990.00
818.03	936.00
818.15	941.00
818.26	886.00
818.38	883.00
818.49	913.00
818.61	939.00
818.72	876.00
818.83	2043.00
818.95	1050.00
819.06	891.00
819.18	908.00
819.29	925.00
819.41	894.00
819.52	932.00
819.64	924.00
819.75	885.00
819.86	851.00
819.98	885.00
820.09	944.00
820.21	922.00
820.32	879.00
820.44	917.00
820.55	977.00
820.66	878.00
820.78	930.00
820.89	891.00
821.01	921.00
821.12	900.00
821.23	899.00
821.35	880.00
821.46	970.00
821.58	887.00
821.69	884.00
821.81	881.00
821.92	954.00
822.03	890.00
822.15	907.00
822.26	849.00
822.38	851.00
822.49	886.00
822.61	906.00
822.72	914.00
822.83	949.00
822.95	873.00
823.06	894.00
823.18	930.00
823.29	961.00
823.40	909.00
823.52	862.00
823.63	830.00
823.75	980.00
823.86	881.00
823.97	824.00
824.09	926.00
824.20	842.00
824.32	878.00
824.43	853.00
824.55	910.00
824.66	960.00
824.77	859.00
824.89	891.00
825.00	948.00
825.12	889.00
825.23	894.00
825.34	810.00
825.46	829.00
825.57	882.00
825.69	852.00
825.80	791.00
825.91	842.00
826.03	825.00
826.14	886.00
826.26	825.00
826.37	861.00
826.48	854.00
826.60	864.00
826.71	836.00
826.83	887.00
826.94	876.00
827.05	894.00
827.17	882.00
827.28	838.00
827.39	858.00
827.51	798.00
827.62	837.00
827.74	853.00
827.85	833.00
827.96	810.00
828.08	822.00
828.19	964.00
828.31	844.00
828.42	783.00
828.53	866.00
828.65	907.00
828.76	931.00
828.87	872.00
828.99	818.00
