Wavelength (nm)	Intensity
377.35	827.00
377.48	827.00
377.62	611.00
377.75	627.00
377.88	862.00
378.02	851.00
378.15	839.00
378.28	804.00
378.41	900.00
378.55	850.00
378.68	826.00
378.81	797.00
378.95	838.00
379.08	845.00
379.21	809.00
379.35	866.00
379.48	853.00
379.61	940.00
379.74	826.00
379.88	811.00
380.01	898.00
380.14	970.00
380.28	875.00
380.41	800.00
380.54	847.00
380.68	862.00
380.81	776.00
380.94	870.00
381.07	922.00
381.21	931.00
381.34	849.00
381.47	779.00
381.61	1020.00
381.74	861.00
381.87	792.00
382.00	861.00
382.14	949.00
382.27	894.00
382.40	809.00
382.54	910.00
382.67	927.00
382.80	827.00
382.93	809.00
383.07	829.00
383.20	853.00
383.33	889.00
383.47	834.00
383.60	797.00
383.73	999.00
383.86	877.00
384.00	833.00
384.13	822.00
384.26	869.00
384.40	909.00
384.53	826.00
384.66	873.00
384.79	862.00
384.93	833.00
385.06	819.00
385.19	837.00
385.33	952.00
385.46	876.00
385.59	809.00
385.72	862.00
385.86	804.00
385.99	845.00
386.12	836.00
386.25	817.00
386.39	901.00
386.52	904.00
386.65	844.00
386.79	828.00
386.92	817.00
387.05	919.00
387.18	777.00
387.32	800.00
387.45	892.00
387.58	872.00
387.71	821.00
387.85	829.00
387.98	868.00
388.11	886.00
388.25	852.00
388.38	838.00
388.51	874.00
388.64	895.00
388.78	810.00
388.91	792.00
389.04	838.00
389.17	978.00
389.31	845.00
389.44	872.00
389.57	917.00
389.70	877.00
389.84	817.00
389.97	801.00
390.10	837.00
390.24	878.00
390.37	823.00
390.50	816.00
390.63	908.00
390.77	839.00
390.90	841.00
391.03	833.00
391.16	796.00
391.30	840.00
391.43	825.00
391.56	829.00
391.69	817.00
391.83	909.00
391.96	843.00
392.09	827.00
392.22	931.00
392.36	875.00
392.49	807.00
392.62	822.00
392.75	858.00
392.89	923.00
393.02	808.00
393.15	802.00
393.28	805.00
393.42	943.00
393.55	790.00
393.68	817.00
393.81	760.00
393.95	814.00
394.08	818.00
394.21	832.00
394.34	894.00
394.48	869.00
394.61	857.00
394.74	858.00
394.87	915.00
395.01	879.00
395.14	883.00
395.27	821.00
395.40	936.00
395.54	938.00
395.67	851.00
395.80	816.00
395.93	860.00
396.07	821.00
396.20	811.00
396.33	773.00
396.46	837.00
396.59	825.00
396.73	825.00
396.86	797.00
396.99	891.00
397.12	869.00
397.26	860.00
397.39	835.00
397.52	1160.00
397.65	964.00
397.79	840.00
397.92	829.00
398.05	882.00
398.18	813.00
398.32	832.00
398.45	869.00
398.58	874.00
398.71	882.00
398.84	775.00
398.98	820.00
399.11	885.00
399.24	876.00
399.37	838.00
399.51	793.00
399.64	845.00
399.77	845.00
399.90	839.00
400.03	837.00
400.17	808.00
400.30	917.00
400.43	874.00
400.56	824.00
400.70	831.00
400.83	806.00
400.96	810.00
401.09	848.00
401.23	857.00
401.36	934.00
401.49	824.00
401.62	842.00
401.75	828.00
401.89	806.00
402.02	830.00
402.15	839.00
402.28	878.00
402.41	865.00
402.55	814.00
402.68	818.00
402.81	924.00
402.94	898.00
403.08	806.00
403.21	794.00
403.34	876.00
403.47	883.00
403.60	821.00
403.74	861.00
403.87	884.00
404.00	831.00
404.13	802.00
404.26	793.00
404.40	818.00
404.53	857.00
404.66	819.00
404.79	805.00
404.93	878.00
405.06	870.00
405.19	786.00
405.32	844.00
405.45	866.00
405.59	891.00
405.72	841.00
405.85	792.00
405.98	1026.00
406.11	829.00
406.25	798.00
406.38	829.00
406.51	885.00
406.64	842.00
406.77	808.00
406.91	806.00
407.04	870.00
407.17	842.00
407.30	853.00
407.43	833.00
407.57	920.00
407.70	898.00
407.83	799.00
407.96	849.00
408.09	813.00
408.23	935.00
408.36	850.00
408.49	818.00
408.62	962.00
408.75	867.00
408.89	812.00
409.02	872.00
409.15	855.00
409.28	963.00
409.41	866.00
409.55	813.00
409.68	963.00
409.81	851.00
409.94	810.00
410.07	848.00
410.20	862.00
410.34	836.00
410.47	856.00
410.60	839.00
410.73	895.00
410.86	816.00
411.00	853.00
411.13	808.00
411.26	867.00
411.39	863.00
411.52	859.00
411.66	829.00
411.79	832.00
411.92	818.00
412.05	837.00
412.18	832.00
412.31	876.00
412.45	894.00
412.58	877.00
412.71	812.00
412.84	856.00
412.97	933.00
413.11	834.00
413.24	844.00
413.37	890.00
413.50	956.00
413.63	866.00
413.76	821.00
413.90	884.00
414.03	840.00
414.16	829.00
414.29	860.00
414.42	863.00
414.56	962.00
414.69	823.00
414.82	841.00
414.95	853.00
415.08	876.00
415.21	834.00
415.35	854.00
415.48	775.00
415.61	903.00
415.74	902.00
415.87	795.00
416.00	877.00
416.14	977.00
416.27	847.00
416.40	791.00
416.53	833.00
416.66	869.00
416.79	849.00
416.93	792.00
417.06	906.00
417.19	852.00
417.32	833.00
417.45	811.00
417.58	804.00
417.72	902.00
417.85	821.00
417.98	853.00
418.11	878.00
418.24	828.00
418.37	817.00
418.51	838.00
418.64	858.00
418.77	942.00
418.90	845.00
419.03	802.00
419.16	854.00
419.29	903.00
419.43	814.00
419.56	802.00
419.69	955.00
419.82	885.00
419.95	833.00
420.08	879.00
420.22	926.00
420.35	985.00
420.48	891.00
420.61	831.00
420.74	797.00
420.87	885.00
421.00	816.00
421.14	834.00
421.27	897.00
421.40	920.00
421.53	879.00
421.66	835.00
421.79	848.00
421.93	851.00
422.06	833.00
422.19	812.00
422.32	903.00
422.45	899.00
422.58	854.00
422.71	825.00
422.85	891.00
422.98	892.00
423.11	805.00
423.24	797.00
423.37	823.00
423.50	844.00
423.63	852.00
423.77	799.00
423.90	820.00
424.03	884.00
424.16	872.00
424.29	825.00
424.42	784.00
424.55	825.00
424.69	818.00
424.82	852.00
424.95	864.00
425.08	824.00
425.21	862.00
425.34	811.00
425.47	857.00
425.60	870.00
425.74	788.00
425.87	844.00
426.00	838.00
426.13	869.00
426.26	806.00
426.39	818.00
426.52	854.00
426.66	935.00
426.79	870.00
426.92	805.00
427.05	947.00
427.18	897.00
427.31	837.00
427.44	835.00
427.57	821.00
427.71	849.00
427.84	797.00
427.97	830.00
428.10	920.00
428.23	862.00
428.36	824.00
428.49	747.00
428.62	969.00
428.76	954.00
428.89	866.00
429.02	796.00
429.15	841.00
429.28	950.00
429.41	824.00
429.54	825.00
429.67	836.00
429.81	878.00
429.94	839.00
430.07	820.00
430.20	902.00
430.33	908.00
430.46	797.00
430.59	818.00
430.72	845.00
430.85	786.00
430.99	821.00
431.12	805.00
431.25	917.00
431.38	927.00
431.51	859.00
431.64	834.00
431.77	918.00
431.90	940.00
432.03	857.00
432.17	811.00
432.30	845.00
432.43	886.00
432.56	850.00
432.69	868.00
432.82	864.00
432.95	928.00
433.08	836.00
433.21	833.00
433.35	845.00
433.48	855.00
433.61	795.00
433.74	832.00
433.87	805.00
434.00	896.00
434.13	814.00
434.26	870.00
434.39	869.00
434.53	881.00
434.66	838.00
434.79	834.00
434.92	845.00
435.05	930.00
435.18	839.00
435.31	857.00
435.44	934.00
435.57	871.00
435.70	852.00
435.84	806.00
435.97	937.00
436.10	981.00
436.23	825.00
436.36	820.00
436.49	839.00
436.62	870.00
436.75	834.00
436.88	860.00
437.01	824.00
437.14	824.00
437.28	785.00
437.41	826.00
437.54	948.00
437.67	906.00
437.80	827.00
437.93	795.00
438.06	999.00
438.19	905.00
438.32	807.00
438.45	811.00
438.58	881.00
438.72	949.00
438.85	897.00
438.98	835.00
439.11	880.00
439.24	927.00
439.37	917.00
439.50	873.00
439.63	906.00
439.76	839.00
439.89	816.00
440.02	843.00
440.15	881.00
440.29	937.00
440.42	832.00
440.55	842.00
440.68	945.00
440.81	977.00
440.94	853.00
441.07	843.00
441.20	963.00
441.33	878.00
441.46	818.00
441.59	803.00
441.72	842.00
441.85	865.00
441.99	876.00
442.12	874.00
442.25	970.00
442.38	904.00
442.51	849.00
442.64	788.00
442.77	849.00
442.90	818.00
443.03	806.00
443.16	812.00
443.29	866.00
443.42	938.00
443.55	829.00
443.68	848.00
443.82	815.00
443.95	848.00
444.08	857.00
444.21	848.00
444.34	833.00
444.47	849.00
444.60	856.00
444.73	876.00
444.86	861.00
444.99	928.00
445.12	882.00
445.25	841.00
445.38	875.00
445.51	911.00
445.64	842.00
445.78	815.00
445.91	788.00
446.04	977.00
446.17	885.00
446.30	796.00
446.43	877.00
446.56	871.00
446.69	816.00
446.82	833.00
446.95	911.00
447.08	940.00
447.21	860.00
447.34	822.00
447.47	922.00
447.60	900.00
447.73	847.00
447.86	882.00
447.99	867.00
448.13	874.00
448.26	890.00
448.39	837.00
448.52	915.00
448.65	911.00
448.78	842.00
448.91	853.00
449.04	892.00
449.17	837.00
449.30	863.00
449.43	839.00
449.56	853.00
449.69	927.00
449.82	842.00
449.95	807.00
450.08	923.00
450.21	867.00
450.34	838.00
450.47	837.00
450.60	898.00
450.73	865.00
450.87	842.00
451.00	864.00
451.13	898.00
451.26	1010.00
451.39	839.00
451.52	870.00
451.65	865.00
451.78	841.00
451.91	835.00
452.04	821.00
452.17	953.00
452.30	928.00
452.43	837.00
452.56	842.00
452.69	899.00
452.82	808.00
452.95	880.00
453.08	820.00
453.21	787.00
453.34	905.00
453.47	823.00
453.60	885.00
453.73	957.00
453.86	909.00
453.99	868.00
454.12	868.00
454.25	863.00
454.38	867.00
454.52	813.00
454.65	828.00
454.78	833.00
454.91	798.00
455.04	841.00
455.17	814.00
455.30	833.00
455.43	914.00
455.56	830.00
455.69	801.00
455.82	896.00
455.95	868.00
456.08	806.00
456.21	803.00
456.34	793.00
456.47	787.00
456.60	828.00
456.73	810.00
456.86	854.00
456.99	894.00
457.12	832.00
457.25	834.00
457.38	916.00
457.51	882.00
457.64	868.00
457.77	836.00
457.90	840.00
458.03	846.00
458.16	830.00
458.29	822.00
458.42	844.00
458.55	816.00
458.68	820.00
458.81	845.00
458.94	945.00
459.07	967.00
459.20	824.00
459.33	813.00
459.46	894.00
459.59	955.00
459.72	926.00
459.85	855.00
459.98	948.00
460.11	898.00
460.24	853.00
460.37	803.00
460.50	921.00
460.63	868.00
460.76	829.00
460.89	861.00
461.02	886.00
461.15	883.00
461.28	854.00
461.41	850.00
461.54	916.00
461.67	817.00
461.80	858.00
461.93	898.00
462.06	872.00
462.19	916.00
462.32	843.00
462.45	817.00
462.58	890.00
462.71	841.00
462.84	838.00
462.97	800.00
463.10	850.00
463.23	873.00
463.36	885.00
463.49	852.00
463.62	813.00
463.75	886.00
463.88	831.00
464.01	845.00
464.14	825.00
464.27	950.00
464.40	851.00
464.53	847.00
464.66	887.00
464.79	886.00
464.92	862.00
465.05	825.00
465.18	858.00
465.31	861.00
465.44	842.00
465.57	828.00
465.70	830.00
465.83	976.00
465.96	870.00
466.09	826.00
466.22	927.00
466.35	892.00
466.48	846.00
466.61	836.00
466.74	861.00
466.87	913.00
467.00	887.00
467.13	881.00
467.26	922.00
467.39	817.00
467.52	814.00
467.65	851.00
467.78	940.00
467.91	871.00
468.04	868.00
468.17	840.00
468.30	850.00
468.43	829.00
468.56	843.00
468.69	871.00
468.82	880.00
468.95	840.00
469.08	840.00
469.21	874.00
469.34	899.00
469.47	971.00
469.60	934.00
469.73	857.00
469.86	884.00
469.99	912.00
470.11	812.00
470.24	834.00
470.37	880.00
470.50	882.00
470.63	836.00
470.76	854.00
470.89	904.00
471.02	982.00
471.15	843.00
471.28	842.00
471.41	969.00
471.54	891.00
471.67	839.00
471.80	801.00
471.93	915.00
472.06	900.00
472.19	835.00
472.32	828.00
472.45	976.00
472.58	931.00
472.71	856.00
472.84	854.00
472.97	846.00
473.10	827.00
473.23	916.00
473.36	799.00
473.49	927.00
473.62	917.00
473.74	886.00
473.87	912.00
474.00	836.00
474.13	844.00
474.26	880.00
474.39	891.00
474.52	865.00
474.65	860.00
474.78	862.00
474.91	806.00
475.04	897.00
475.17	1013.00
475.30	884.00
475.43	871.00
475.56	917.00
475.69	868.00
475.82	889.00
475.95	832.00
476.08	953.00
476.21	883.00
476.34	910.00
476.46	911.00
476.59	962.00
476.72	869.00
476.85	856.00
476.98	832.00
477.11	926.00
477.24	865.00
477.37	803.00
477.50	854.00
477.63	896.00
477.76	840.00
477.89	797.00
478.02	828.00
478.15	874.00
478.28	850.00
478.41	887.00
478.54	846.00
478.66	923.00
478.79	867.00
478.92	860.00
479.05	869.00
479.18	886.00
479.31	834.00
479.44	843.00
479.57	836.00
479.70	852.00
479.83	890.00
479.96	851.00
480.09	898.00
480.22	1015.00
480.35	997.00
480.48	920.00
480.60	892.00
480.73	851.00
480.86	919.00
480.99	885.00
481.12	874.00
481.25	883.00
481.38	942.00
481.51	856.00
481.64	877.00
481.77	916.00
481.90	878.00
482.03	864.00
482.16	861.00
482.29	944.00
482.41	891.00
482.54	914.00
482.67	862.00
482.80	892.00
482.93	931.00
483.06	836.00
483.19	929.00
483.32	919.00
483.45	885.00
483.58	899.00
483.71	916.00
483.84	943.00
483.97	917.00
484.09	877.00
484.22	861.00
484.35	852.00
484.48	833.00
484.61	854.00
484.74	857.00
484.87	887.00
485.00	837.00
485.13	892.00
485.26	834.00
485.39	921.00
485.52	875.00
485.64	935.00
485.77	899.00
485.90	935.00
486.03	849.00
486.16	891.00
486.29	850.00
486.42	881.00
486.55	898.00
486.68	869.00
486.81	908.00
486.94	903.00
487.06	866.00
487.19	914.00
487.32	913.00
487.45	907.00
487.58	883.00
487.71	885.00
487.84	845.00
487.97	923.00
488.10	935.00
488.23	873.00
488.35	822.00
488.48	862.00
488.61	834.00
488.74	855.00
488.87	863.00
489.00	921.00
489.13	999.00
489.26	915.00
489.39	912.00
489.52	933.00
489.64	920.00
489.77	886.00
489.90	888.00
490.03	885.00
490.16	915.00
490.29	876.00
490.42	862.00
490.55	895.00
490.68	872.00
490.81	862.00
490.93	832.00
491.06	942.00
491.19	916.00
491.32	899.00
491.45	912.00
491.58	841.00
491.71	901.00
491.84	891.00
491.97	884.00
492.09	967.00
492.22	925.00
492.35	883.00
492.48	916.00
492.61	924.00
492.74	910.00
492.87	910.00
493.00	899.00
493.12	877.00
493.25	891.00
493.38	885.00
493.51	835.00
493.64	855.00
493.77	902.00
493.90	923.00
494.03	922.00
494.16	962.00
494.28	976.00
494.41	874.00
494.54	887.00
494.67	1026.00
494.80	1007.00
494.93	904.00
495.06	899.00
495.19	936.00
495.31	909.00
495.44	902.00
495.57	859.00
495.70	944.00
495.83	884.00
495.96	860.00
496.09	909.00
496.22	999.00
496.34	999.00
496.47	877.00
496.60	917.00
496.73	950.00
496.86	948.00
496.99	865.00
497.12	893.00
497.24	838.00
497.37	910.00
497.50	876.00
497.63	862.00
497.76	892.00
497.89	971.00
498.02	926.00
498.15	824.00
498.27	900.00
498.40	951.00
498.53	952.00
498.66	896.00
498.79	953.00
498.92	882.00
499.05	902.00
499.17	906.00
499.30	929.00
499.43	1005.00
499.56	908.00
499.69	856.00
499.82	921.00
499.95	886.00
500.07	872.00
500.20	890.00
500.33	958.00
500.46	1050.00
500.59	905.00
500.72	928.00
500.85	960.00
500.97	972.00
501.10	959.00
501.23	855.00
501.36	911.00
501.49	988.00
501.62	922.00
501.75	900.00
501.87	984.00
502.00	859.00
502.13	920.00
502.26	911.00
502.39	891.00
502.52	878.00
502.64	826.00
502.77	875.00
502.90	946.00
503.03	908.00
503.16	892.00
503.29	870.00
503.42	976.00
503.54	919.00
503.67	903.00
503.80	909.00
503.93	980.00
504.06	888.00
504.19	900.00
504.31	957.00
504.44	920.00
504.57	929.00
504.70	918.00
504.83	854.00
504.96	926.00
505.08	898.00
505.21	925.00
505.34	1021.00
505.47	978.00
505.60	958.00
505.73	964.00
505.85	943.00
505.98	1064.00
506.11	920.00
506.24	882.00
506.37	862.00
506.50	930.00
506.62	967.00
506.75	894.00
506.88	869.00
507.01	934.00
507.14	869.00
507.27	906.00
507.39	872.00
507.52	900.00
507.65	899.00
507.78	911.00
507.91	870.00
508.04	975.00
508.16	974.00
508.29	921.00
508.42	886.00
508.55	904.00
508.68	897.00
508.81	954.00
508.93	896.00
509.06	912.00
509.19	965.00
509.32	937.00
509.45	918.00
509.57	942.00
509.70	882.00
509.83	915.00
509.96	875.00
510.09	913.00
510.22	898.00
510.34	915.00
510.47	896.00
510.60	1018.00
510.73	942.00
510.86	942.00
510.98	893.00
511.11	906.00
511.24	983.00
511.37	949.00
511.50	915.00
511.63	949.00
511.75	932.00
511.88	921.00
512.01	952.00
512.14	928.00
512.27	935.00
512.39	909.00
512.52	921.00
512.65	941.00
512.78	892.00
512.91	925.00
513.03	923.00
513.16	986.00
513.29	955.00
513.42	903.00
513.55	862.00
513.67	937.00
513.80	896.00
513.93	894.00
514.06	917.00
514.19	951.00
514.31	939.00
514.44	964.00
514.57	903.00
514.70	936.00
514.83	995.00
514.95	891.00
515.08	927.00
515.21	945.00
515.34	931.00
515.47	922.00
515.59	890.00
515.72	956.00
515.85	961.00
515.98	990.00
516.11	941.00
516.23	954.00
516.36	1008.00
516.49	957.00
516.62	923.00
516.75	996.00
516.87	1005.00
517.00	904.00
517.13	948.00
517.26	991.00
517.39	952.00
517.51	876.00
517.64	925.00
517.77	1025.00
517.90	902.00
518.02	927.00
518.15	895.00
518.28	844.00
518.41	919.00
518.54	917.00
518.66	934.00
518.79	898.00
518.92	905.00
519.05	890.00
519.18	910.00
519.30	966.00
519.43	877.00
519.56	898.00
519.69	905.00
519.81	1011.00
519.94	936.00
520.07	869.00
520.20	906.00
520.33	942.00
520.45	1002.00
520.58	935.00
520.71	946.00
520.84	971.00
520.96	960.00
521.09	927.00
521.22	898.00
521.35	967.00
521.48	961.00
521.60	903.00
521.73	934.00
521.86	992.00
521.99	1019.00
522.11	954.00
522.24	916.00
522.37	958.00
522.50	953.00
522.62	982.00
522.75	858.00
522.88	949.00
523.01	909.00
523.14	964.00
523.26	946.00
523.39	1007.00
523.52	908.00
523.65	1037.00
523.77	972.00
523.90	946.00
524.03	930.00
524.16	922.00
524.28	914.00
524.41	916.00
524.54	931.00
524.67	882.00
524.79	921.00
524.92	958.00
525.05	1012.00
525.18	900.00
525.31	967.00
525.43	890.00
525.56	1049.00
525.69	915.00
525.82	878.00
525.94	989.00
526.07	998.00
526.20	977.00
526.33	973.00
526.45	1089.00
526.58	1055.00
526.71	950.00
526.84	921.00
526.96	949.00
527.09	938.00
527.22	928.00
527.35	927.00
527.47	891.00
527.60	1001.00
527.73	918.00
527.86	957.00
527.98	959.00
528.11	985.00
528.24	897.00
528.37	913.00
528.49	908.00
528.62	944.00
528.75	954.00
528.88	896.00
529.00	976.00
529.13	999.00
529.26	937.00
529.39	971.00
529.51	1085.00
529.64	1063.00
529.77	925.00
529.90	914.00
530.02	945.00
530.15	932.00
530.28	870.00
530.40	923.00
530.53	961.00
530.66	985.00
530.79	928.00
530.91	938.00
531.04	909.00
531.17	945.00
531.30	926.00
531.42	930.00
531.55	941.00
531.68	1010.00
531.81	916.00
531.93	937.00
532.06	967.00
532.19	913.00
532.31	940.00
532.44	934.00
532.57	984.00
532.70	916.00
532.82	938.00
532.95	965.00
533.08	1006.00
533.21	981.00
533.33	892.00
533.46	911.00
533.59	914.00
533.71	1058.00
533.84	961.00
533.97	916.00
534.10	926.00
534.22	913.00
534.35	925.00
534.48	961.00
534.61	976.00
534.73	876.00
534.86	909.00
534.99	937.00
535.11	1004.00
535.24	962.00
535.37	930.00
535.50	915.00
535.62	901.00
535.75	1015.00
535.88	944.00
536.00	923.00
536.13	927.00
536.26	946.00
536.39	920.00
536.51	887.00
536.64	962.00
536.77	947.00
536.89	955.00
537.02	954.00
537.15	983.00
537.28	959.00
537.40	938.00
537.53	931.00
537.66	1007.00
537.78	964.00
537.91	920.00
538.04	927.00
538.17	989.00
538.29	960.00
538.42	993.00
538.55	991.00
538.67	969.00
538.80	934.00
538.93	962.00
539.05	945.00
539.18	1027.00
539.31	990.00
539.44	962.00
539.56	877.00
539.69	959.00
539.82	940.00
539.94	910.00
540.07	921.00
540.20	1014.00
540.32	926.00
540.45	945.00
540.58	919.00
540.71	997.00
540.83	903.00
540.96	943.00
541.09	956.00
541.21	1028.00
541.34	1044.00
541.47	921.00
541.59	919.00
541.72	1034.00
541.85	1097.00
541.98	1008.00
542.10	937.00
542.23	977.00
542.36	1080.00
542.48	959.00
542.61	937.00
542.74	921.00
542.86	930.00
542.99	949.00
543.12	933.00
543.24	987.00
543.37	896.00
543.50	944.00
543.62	927.00
543.75	948.00
543.88	930.00
544.01	977.00
544.13	983.00
544.26	1011.00
544.39	929.00
544.51	922.00
544.64	928.00
544.77	986.00
544.89	957.00
545.02	968.00
545.15	931.00
545.27	1048.00
545.40	1059.00
545.53	991.00
545.65	987.00
545.78	897.00
545.91	922.00
546.03	939.00
546.16	946.00
546.29	954.00
546.41	923.00
546.54	941.00
546.67	931.00
546.79	999.00
546.92	1033.00
547.05	899.00
547.17	957.00
547.30	942.00
547.43	1001.00
547.56	913.00
547.68	947.00
547.81	903.00
547.94	956.00
548.06	939.00
548.19	914.00
548.32	1021.00
548.44	973.00
548.57	955.00
548.70	992.00
548.82	1016.00
548.95	1005.00
549.08	957.00
549.20	956.00
549.33	1062.00
549.45	978.00
549.58	952.00
549.71	906.00
549.83	1004.00
549.96	918.00
550.09	960.00
550.21	931.00
550.34	992.00
550.47	972.00
550.59	953.00
550.72	877.00
550.85	957.00
550.97	1048.00
551.10	946.00
551.23	921.00
551.35	1034.00
551.48	980.00
551.61	969.00
551.73	954.00
551.86	1050.00
551.99	1025.00
552.11	958.00
552.24	993.00
552.37	974.00
552.49	943.00
552.62	936.00
552.75	989.00
552.87	950.00
553.00	953.00
553.12	980.00
553.25	952.00
553.38	999.00
553.50	1030.00
553.63	945.00
553.76	886.00
553.88	981.00
554.01	956.00
554.14	966.00
554.26	988.00
554.39	1059.00
554.52	968.00
554.64	948.00
554.77	938.00
554.89	998.00
555.02	1012.00
555.15	966.00
555.27	965.00
555.40	961.00
555.53	1035.00
555.65	959.00
555.78	942.00
555.91	996.00
556.03	1034.00
556.16	924.00
556.29	944.00
556.41	1043.00
556.54	1047.00
556.66	976.00
556.79	946.00
556.92	963.00
557.04	1007.00
557.17	952.00
557.30	952.00
557.42	966.00
557.55	961.00
557.67	985.00
557.80	959.00
557.93	978.00
558.05	969.00
558.18	924.00
558.31	966.00
558.43	1013.00
558.56	994.00
558.68	962.00
558.81	927.00
558.94	949.00
559.06	1090.00
559.19	934.00
559.32	933.00
559.44	936.00
559.57	977.00
559.69	941.00
559.82	945.00
559.95	953.00
560.07	960.00
560.20	903.00
560.33	977.00
560.45	989.00
560.58	908.00
560.70	970.00
560.83	930.00
560.96	943.00
561.08	952.00
561.21	992.00
561.33	935.00
561.46	943.00
561.59	1025.00
561.71	937.00
561.84	973.00
561.97	936.00
562.09	1010.00
562.22	949.00
562.34	947.00
562.47	1022.00
562.60	997.00
562.72	952.00
562.85	977.00
562.97	979.00
563.10	977.00
563.23	933.00
563.35	956.00
563.48	975.00
563.60	966.00
563.73	992.00
563.86	919.00
563.98	930.00
564.11	961.00
564.23	955.00
564.36	1017.00
564.49	980.00
564.61	1047.00
564.74	984.00
564.86	957.00
564.99	1014.00
565.12	1014.00
565.24	1014.00
565.37	1018.00
565.49	1037.00
565.62	1053.00
565.75	1004.00
565.87	953.00
566.00	1122.00
566.12	1049.00
566.25	977.00
566.38	987.00
566.50	955.00
566.63	1037.00
566.75	969.00
566.88	942.00
567.01	938.00
567.13	966.00
567.26	960.00
567.38	958.00
567.51	1027.00
567.64	969.00
567.76	998.00
567.89	991.00
568.01	947.00
568.14	945.00
568.26	977.00
568.39	953.00
568.52	978.00
568.64	1022.00
568.77	981.00
568.89	951.00
569.02	964.00
569.15	978.00
569.27	954.00
569.40	1000.00
569.52	1022.00
569.65	965.00
569.77	963.00
569.90	919.00
570.03	944.00
570.15	1048.00
570.28	977.00
570.40	975.00
570.53	977.00
570.66	1058.00
570.78	1028.00
570.91	981.00
571.03	938.00
571.16	989.00
571.28	933.00
571.41	922.00
571.54	934.00
571.66	920.00
571.79	976.00
571.91	959.00
572.04	929.00
572.16	1010.00
572.29	1012.00
572.42	944.00
572.54	1007.00
572.67	971.00
572.79	986.00
572.92	966.00
573.04	1010.00
573.17	1043.00
573.29	994.00
573.42	952.00
573.55	1022.00
573.67	1008.00
573.80	969.00
573.92	951.00
574.05	1001.00
574.17	1036.00
574.30	956.00
574.43	965.00
574.55	978.00
574.68	990.00
574.80	976.00
574.93	951.00
575.05	964.00
575.18	983.00
575.30	967.00
575.43	1005.00
575.56	1055.00
575.68	1013.00
575.81	963.00
575.93	929.00
576.06	1029.00
576.18	1023.00
576.31	952.00
576.43	950.00
576.56	1105.00
576.69	1051.00
576.81	1000.00
576.94	966.00
577.06	986.00
577.19	1035.00
577.31	1006.00
577.44	997.00
577.56	1028.00
577.69	1009.00
577.82	1003.00
577.94	946.00
578.07	920.00
578.19	1004.00
578.32	1016.00
578.44	957.00
578.57	966.00
578.69	1050.00
578.82	1005.00
578.94	1025.00
579.07	1048.00
579.19	1032.00
579.32	1012.00
579.45	1004.00
579.57	992.00
579.70	953.00
579.82	993.00
579.95	962.00
580.07	1064.00
580.20	998.00
580.32	977.00
580.45	1012.00
580.57	1045.00
580.70	1036.00
580.82	1005.00
580.95	1009.00
581.08	958.00
581.20	1041.00
581.33	961.00
581.45	975.00
581.58	993.00
581.70	1013.00
581.83	910.00
581.95	1017.00
582.08	1033.00
582.20	960.00
582.33	979.00
582.45	964.00
582.58	1007.00
582.70	1024.00
582.83	965.00
582.95	983.00
583.08	1038.00
583.21	1042.00
583.33	994.00
583.46	972.00
583.58	946.00
583.71	1047.00
583.83	1007.00
583.96	1016.00
584.08	1023.00
584.21	1021.00
584.33	1001.00
584.46	983.00
584.58	942.00
584.71	1037.00
584.83	1017.00
584.96	992.00
585.08	977.00
585.21	1107.00
585.33	1059.00
585.46	1006.00
585.58	1028.00
585.71	978.00
585.83	998.00
585.96	1046.00
586.08	1026.00
586.21	1016.00
586.33	1029.00
586.46	947.00
586.59	1036.00
586.71	964.00
586.84	1028.00
586.96	994.00
587.09	952.00
587.21	956.00
587.34	1018.00
587.46	972.00
587.59	947.00
587.71	999.00
587.84	959.00
587.96	937.00
588.09	969.00
588.21	1021.00
588.34	977.00
588.46	984.00
588.59	974.00
588.71	1020.00
588.84	1009.00
588.96	996.00
589.09	1100.00
589.21	995.00
589.34	976.00
589.46	994.00
589.59	1011.00
589.71	1040.00
589.84	961.00
589.96	981.00
590.09	981.00
590.21	1048.00
590.34	1018.00
590.46	998.00
590.59	965.00
590.71	993.00
590.84	1025.00
590.96	967.00
591.09	1014.00
591.21	1007.00
591.34	991.00
591.46	976.00
591.59	1085.00
591.71	1028.00
591.83	991.00
591.96	936.00
592.08	978.00
592.21	1037.00
592.33	999.00
592.46	989.00
592.58	996.00
592.71	1026.00
592.83	1093.00
592.96	1037.00
593.08	1060.00
593.21	959.00
593.33	959.00
593.46	987.00
593.58	988.00
593.71	1058.00
593.83	1065.00
593.96	958.00
594.08	1124.00
594.21	993.00
594.33	990.00
594.46	969.00
594.58	963.00
594.71	924.00
594.83	994.00
594.96	987.00
595.08	1155.00
595.20	1058.00
595.33	1005.00
595.45	960.00
595.58	1089.00
595.70	1018.00
595.83	981.00
595.95	1007.00
596.08	1030.00
596.20	975.00
596.33	958.00
596.45	994.00
596.58	965.00
596.70	974.00
596.83	977.00
596.95	977.00
597.08	1006.00
597.20	963.00
597.32	985.00
597.45	1005.00
597.57	992.00
597.70	1022.00
597.82	979.00
597.95	1002.00
598.07	1000.00
598.20	1016.00
598.32	989.00
598.45	986.00
598.57	1060.00
598.70	1072.00
598.82	967.00
598.94	970.00
599.07	1070.00
599.19	1011.00
599.32	991.00
599.44	895.00
599.57	1038.00
599.69	1043.00
599.82	997.00
599.94	944.00
600.07	1053.00
600.19	1024.00
600.31	984.00
600.44	1050.00
600.56	1138.00
600.69	1095.00
600.81	995.00
600.94	990.00
601.06	1012.00
601.19	1061.00
601.31	1046.00
601.44	953.00
601.56	1068.00
601.68	1036.00
601.81	1020.00
601.93	1018.00
602.06	1042.00
602.18	969.00
602.31	1004.00
602.43	1056.00
602.56	1026.00
602.68	1022.00
602.80	995.00
602.93	1025.00
603.05	987.00
603.18	1020.00
603.30	960.00
603.43	973.00
603.55	1012.00
603.68	1031.00
603.80	1001.00
603.92	995.00
604.05	988.00
604.17	995.00
604.30	955.00
604.42	983.00
604.55	1013.00
604.67	1052.00
604.79	999.00
604.92	1002.00
605.04	1012.00
605.17	995.00
605.29	976.00
605.42	979.00
605.54	1087.00
605.66	1025.00
605.79	1017.00
605.91	984.00
606.04	1004.00
606.16	998.00
606.29	1028.00
606.41	983.00
606.53	1014.00
606.66	952.00
606.78	1000.00
606.91	998.00
607.03	978.00
607.16	979.00
607.28	980.00
607.40	1008.00
607.53	1037.00
607.65	990.00
607.78	985.00
607.90	1002.00
608.03	1109.00
608.15	1036.00
608.27	1037.00
608.40	967.00
608.52	1036.00
608.65	1013.00
608.77	1042.00
608.89	1006.00
609.02	1092.00
609.14	1090.00
609.27	1030.00
609.39	1038.00
609.52	1004.00
609.64	939.00
609.76	981.00
609.89	1014.00
610.01	1080.00
610.14	1040.00
610.26	1002.00
610.38	977.00
610.51	1059.00
610.63	1001.00
610.76	982.00
610.88	1045.00
611.01	1094.00
611.13	1110.00
611.25	1043.00
611.38	965.00
611.50	1028.00
611.63	1045.00
611.75	1021.00
611.87	1027.00
612.00	1005.00
612.12	1076.00
612.25	999.00
612.37	968.00
612.49	1093.00
612.62	1099.00
612.74	1083.00
612.87	1008.00
612.99	1020.00
613.11	994.00
613.24	1004.00
613.36	984.00
613.49	1025.00
613.61	1033.00
613.73	1004.00
613.86	1050.00
613.98	981.00
614.11	1073.00
614.23	1065.00
614.35	1057.00
614.48	1061.00
614.60	1030.00
614.72	1014.00
614.85	1047.00
614.97	1036.00
615.10	1034.00
615.22	1009.00
615.34	1020.00
615.47	1075.00
615.59	981.00
615.72	1015.00
615.84	1046.00
615.96	991.00
616.09	1118.00
616.21	1012.00
616.34	993.00
616.46	1000.00
616.58	1037.00
616.71	1043.00
616.83	1049.00
616.95	1048.00
617.08	1066.00
617.20	1029.00
617.33	971.00
617.45	1016.00
617.57	1069.00
617.70	1029.00
617.82	1003.00
617.95	1045.00
618.07	1121.00
618.19	1020.00
618.32	1020.00
618.44	1002.00
618.56	985.00
618.69	945.00
618.81	953.00
618.94	1062.00
619.06	1013.00
619.18	1027.00
619.31	973.00
619.43	976.00
619.55	1060.00
619.68	1050.00
619.80	988.00
619.92	1045.00
620.05	1161.00
620.17	1079.00
620.30	1036.00
620.42	1062.00
620.54	1089.00
620.67	993.00
620.79	1014.00
620.91	1036.00
621.04	1079.00
621.16	1032.00
621.29	1010.00
621.41	964.00
621.53	1012.00
621.66	1009.00
621.78	1006.00
621.90	1068.00
622.03	1110.00
622.15	997.00
622.27	1008.00
622.40	1019.00
622.52	994.00
622.64	988.00
622.77	980.00
622.89	1046.00
623.02	1085.00
623.14	1027.00
623.26	1031.00
623.39	1036.00
623.51	1082.00
623.63	1017.00
623.76	984.00
623.88	1101.00
624.00	1046.00
624.13	988.00
624.25	981.00
624.37	990.00
624.50	1068.00
624.62	1035.00
624.75	983.00
624.87	988.00
624.99	1060.00
625.12	985.00
625.24	993.00
625.36	1110.00
625.49	1065.00
625.61	1030.00
625.73	1037.00
625.86	1072.00
625.98	1039.00
626.10	999.00
626.23	985.00
626.35	1048.00
626.47	1045.00
626.60	995.00
626.72	991.00
626.84	1001.00
626.97	1043.00
627.09	1019.00
627.21	1009.00
627.34	1149.00
627.46	1113.00
627.58	1011.00
627.71	1023.00
627.83	1049.00
627.95	990.00
628.08	1040.00
628.20	1065.00
628.32	981.00
628.45	940.00
628.57	955.00
628.69	993.00
628.82	1046.00
628.94	1088.00
629.06	1040.00
629.19	1026.00
629.31	1075.00
629.43	986.00
629.56	1038.00
629.68	1038.00
629.80	1083.00
629.93	997.00
630.05	980.00
630.17	980.00
630.30	1029.00
630.42	1009.00
630.54	1056.00
630.67	1000.00
630.79	985.00
630.91	1132.00
631.04	1021.00
631.16	1034.00
631.28	1053.00
631.41	999.00
631.53	985.00
631.65	1028.00
631.78	1064.00
631.90	1034.00
632.02	1009.00
632.14	936.00
632.27	1104.00
632.39	1028.00
632.51	992.00
632.64	1072.00
632.76	1047.00
632.88	997.00
633.01	1034.00
633.13	997.00
633.25	1043.00
633.38	1161.00
633.50	966.00
633.62	966.00
633.75	956.00
633.87	941.00
633.99	1025.00
634.11	965.00
634.24	1006.00
634.36	1009.00
634.48	1003.00
634.61	1004.00
634.73	1046.00
634.85	1006.00
634.98	1001.00
635.10	1003.00
635.22	1016.00
635.35	1150.00
635.47	1044.00
635.59	1020.00
635.71	1052.00
635.84	1078.00
635.96	1021.00
636.08	1060.00
636.21	1013.00
636.33	1031.00
636.45	1003.00
636.58	1006.00
636.70	973.00
636.82	1067.00
636.94	990.00
637.07	965.00
637.19	1109.00
637.31	1071.00
637.44	1050.00
637.56	965.00
637.68	1060.00
637.81	1063.00
637.93	1022.00
638.05	993.00
638.17	1097.00
638.30	1131.00
638.42	1022.00
638.54	1014.00
638.67	1033.00
638.79	1019.00
638.91	995.00
639.03	1010.00
639.16	1012.00
639.28	1021.00
639.40	1033.00
639.53	1000.00
639.65	1056.00
639.77	1046.00
639.89	1034.00
640.02	1025.00
640.14	1042.00
640.26	995.00
640.39	1051.00
640.51	991.00
640.63	1055.00
640.75	1076.00
640.88	1032.00
641.00	1012.00
641.12	1014.00
641.24	1105.00
641.37	1009.00
641.49	980.00
641.61	1141.00
641.74	999.00
641.86	1027.00
641.98	995.00
642.10	1070.00
642.23	1081.00
642.35	1026.00
642.47	1034.00
642.60	1036.00
642.72	1062.00
642.84	982.00
642.96	996.00
643.09	995.00
643.21	996.00
643.33	993.00
643.45	987.00
643.58	1085.00
643.70	1114.00
643.82	1006.00
643.94	994.00
644.07	1041.00
644.19	1031.00
644.31	1028.00
644.44	1029.00
644.56	1005.00
644.68	986.00
644.80	982.00
644.93	983.00
645.05	999.00
645.17	1049.00
645.29	1040.00
645.42	1040.00
645.54	1033.00
645.66	1062.00
645.78	997.00
645.91	1008.00
646.03	1059.00
646.15	1100.00
646.27	1008.00
646.40	1040.00
646.52	1064.00
646.64	1100.00
646.76	1036.00
646.89	971.00
647.01	1070.00
647.13	1066.00
647.25	1081.00
647.38	1038.00
647.50	994.00
647.62	1066.00
647.74	974.00
647.87	966.00
647.99	1046.00
648.11	1072.00
648.23	1018.00
648.36	964.00
648.48	1108.00
648.60	1068.00
648.72	1015.00
648.85	976.00
648.97	1093.00
649.09	1069.00
649.21	989.00
649.34	1045.00
649.46	1055.00
649.58	1051.00
649.70	1061.00
649.83	1007.00
649.95	1106.00
650.07	1059.00
650.19	1061.00
650.32	1038.00
650.44	1065.00
650.56	1073.00
650.68	1014.00
650.81	1004.00
650.93	1031.00
651.05	1104.00
651.17	1000.00
651.29	1040.00
651.42	1054.00
651.54	1076.00
651.66	1006.00
651.78	1013.00
651.91	1085.00
652.03	1185.00
652.15	1054.00
652.27	1016.00
652.40	1055.00
652.52	1030.00
652.64	1045.00
652.76	1000.00
652.88	1160.00
653.01	1060.00
653.13	1019.00
653.25	976.00
653.37	1088.00
653.50	1101.00
653.62	1050.00
653.74	983.00
653.86	1084.00
653.98	1081.00
654.11	1010.00
654.23	1012.00
654.35	1037.00
654.47	1162.00
654.60	1025.00
654.72	1017.00
654.84	995.00
654.96	1108.00
655.08	1009.00
655.21	1058.00
655.33	1028.00
655.45	1108.00
655.57	1055.00
655.70	1001.00
655.82	1087.00
655.94	1126.00
656.06	1079.00
656.18	989.00
656.31	1120.00
656.43	1087.00
656.55	1010.00
656.67	1029.00
656.79	1043.00
656.92	1114.00
657.04	1060.00
657.16	1034.00
657.28	1145.00
657.40	1050.00
657.53	1077.00
657.65	1034.00
657.77	1119.00
657.89	1110.00
658.01	1030.00
658.14	1012.00
658.26	1074.00
658.38	1058.00
658.50	1000.00
658.62	991.00
658.75	1171.00
658.87	1100.00
658.99	1072.00
659.11	1011.00
659.23	1101.00
659.36	1160.00
659.48	1095.00
659.60	1054.00
659.72	1044.00
659.84	1053.00
659.97	1076.00
660.09	1054.00
660.21	1150.00
660.33	1112.00
660.45	994.00
660.58	964.00
660.70	1025.00
660.82	1041.00
660.94	994.00
661.06	1045.00
661.19	1115.00
661.31	1093.00
661.43	1030.00
661.55	1028.00
661.67	1101.00
661.80	1144.00
661.92	1048.00
662.04	1052.00
662.16	1063.00
662.28	1121.00
662.40	1040.00
662.53	1053.00
662.65	1080.00
662.77	1024.00
662.89	1051.00
663.01	1010.00
663.14	1060.00
663.26	1085.00
663.38	1061.00
663.50	1029.00
663.62	1043.00
663.74	1069.00
663.87	1027.00
663.99	1058.00
664.11	1067.00
664.23	1178.00
664.35	1038.00
664.48	1033.00
664.60	1050.00
664.72	1053.00
664.84	992.00
664.96	1046.00
665.08	1109.00
665.21	1083.00
665.33	1091.00
665.45	978.00
665.57	1039.00
665.69	1148.00
665.81	1039.00
665.94	1015.00
666.06	1003.00
666.18	1081.00
666.30	1036.00
666.42	1032.00
666.54	1094.00
666.67	1090.00
666.79	1005.00
666.91	1069.00
667.03	1025.00
667.15	990.00
667.27	1032.00
667.40	1005.00
667.52	1040.00
667.64	1108.00
667.76	1023.00
667.88	1005.00
668.00	1083.00
668.13	1124.00
668.25	1008.00
668.37	1016.00
668.49	1015.00
668.61	1107.00
668.73	1048.00
668.85	1066.00
668.98	1076.00
669.10	1064.00
669.22	1038.00
669.34	1020.00
669.46	1112.00
669.58	1046.00
669.71	1061.00
669.83	1054.00
669.95	1035.00
670.07	1079.00
670.19	1021.00
670.31	1039.00
670.43	1042.00
670.56	1081.00
670.68	1093.00
670.80	1056.00
670.92	1079.00
671.04	1111.00
671.16	1037.00
671.28	1038.00
671.41	1046.00
671.53	1116.00
671.65	1042.00
671.77	1033.00
671.89	1208.00
672.01	1169.00
672.13	1095.00
672.26	1020.00
672.38	1072.00
672.50	1038.00
672.62	1046.00
672.74	1054.00
672.86	1074.00
672.98	1088.00
673.11	1037.00
673.23	1052.00
673.35	1125.00
673.47	1067.00
673.59	1066.00
673.71	1023.00
673.83	1100.00
673.96	1199.00
674.08	1057.00
674.20	995.00
674.32	1049.00
674.44	1059.00
674.56	1068.00
674.68	1064.00
674.80	1094.00
674.93	1069.00
675.05	1045.00
675.17	1046.00
675.29	1095.00
675.41	1100.00
675.53	1055.00
675.65	1033.00
675.77	1052.00
675.90	1124.00
676.02	1029.00
676.14	1026.00
676.26	1137.00
676.38	1177.00
676.50	1061.00
676.62	1077.00
676.74	1013.00
676.87	1058.00
676.99	1066.00
677.11	1105.00
677.23	1082.00
677.35	1112.00
677.47	1025.00
677.59	1032.00
677.71	1065.00
677.83	1094.00
677.96	1072.00
678.08	1062.00
678.20	1074.00
678.32	1043.00
678.44	1060.00
678.56	1054.00
678.68	1226.00
678.80	1114.00
678.93	1033.00
679.05	1058.00
679.17	1065.00
679.29	1131.00
679.41	1075.00
679.53	1030.00
679.65	1038.00
679.77	1043.00
679.89	1031.00
680.01	1092.00
680.14	1092.00
680.26	998.00
680.38	1027.00
680.50	1097.00
680.62	1168.00
680.74	1100.00
680.86	1053.00
680.98	1060.00
681.10	1090.00
681.22	1184.00
681.35	1062.00
681.47	1072.00
681.59	1033.00
681.71	1143.00
681.83	1076.00
681.95	1026.00
682.07	1126.00
682.19	1092.00
682.31	1061.00
682.43	1028.00
682.56	1125.00
682.68	1013.00
682.80	1046.00
682.92	1093.00
683.04	1083.00
683.16	1060.00
683.28	1021.00
683.40	1083.00
683.52	1067.00
683.64	1111.00
683.76	1024.00
683.89	1038.00
684.01	1086.00
684.13	1138.00
684.25	1076.00
684.37	1077.00
684.49	1111.00
684.61	1066.00
684.73	1067.00
684.85	1041.00
684.97	1021.00
685.09	1137.00
685.21	1027.00
685.34	1064.00
685.46	1203.00
685.58	1104.00
685.70	1099.00
685.82	1121.00
685.94	1046.00
686.06	1050.00
686.18	1025.00
686.30	1070.00
686.42	1026.00
686.54	1122.00
686.66	1044.00
686.79	1151.00
686.91	1084.00
687.03	1193.00
687.15	1094.00
687.27	1079.00
687.39	1074.00
687.51	1161.00
687.63	1078.00
687.75	1132.00
687.87	1116.00
687.99	1158.00
688.11	1043.00
688.23	1116.00
688.35	1138.00
688.48	1111.00
688.60	1050.00
688.72	1054.00
688.84	1093.00
688.96	1121.00
689.08	1073.00
689.20	1073.00
689.32	1214.00
689.44	1100.00
689.56	1025.00
689.68	1044.00
689.80	1081.00
689.92	1050.00
690.04	1054.00
690.16	1098.00
690.28	1085.00
690.41	1112.00
690.53	1044.00
690.65	1099.00
690.77	1134.00
690.89	1142.00
691.01	1081.00
691.13	1056.00
691.25	1041.00
691.37	1062.00
691.49	1036.00
691.61	1018.00
691.73	1187.00
691.85	1091.00
691.97	1066.00
692.09	1049.00
692.21	1131.00
692.33	1149.00
692.45	1091.00
692.57	1046.00
692.70	1104.00
692.82	1121.00
692.94	1017.00
693.06	1051.00
693.18	1106.00
693.30	1063.00
693.42	1056.00
693.54	1093.00
693.66	1100.00
693.78	1100.00
693.90	1056.00
694.02	1075.00
694.14	1100.00
694.26	1052.00
694.38	1080.00
694.50	1082.00
694.62	1101.00
694.74	1058.00
694.86	1074.00
694.98	1091.00
695.10	1088.00
695.22	1127.00
695.34	1063.00
695.46	1029.00
695.58	1062.00
695.71	1120.00
695.83	1081.00
695.95	1070.00
696.07	1153.00
696.19	1038.00
696.31	1047.00
696.43	1042.00
696.55	1176.00
696.67	1122.00
696.79	1065.00
696.91	1071.00
697.03	1093.00
697.15	1175.00
697.27	1091.00
697.39	1057.00
697.51	1132.00
697.63	1053.00
697.75	1047.00
697.87	1083.00
697.99	1034.00
698.11	1008.00
698.23	1034.00
698.35	1062.00
698.47	1086.00
698.59	1084.00
698.71	1053.00
698.83	1101.00
698.95	1059.00
699.07	1088.00
699.19	1057.00
699.31	1078.00
699.43	1055.00
699.55	1112.00
699.67	1058.00
699.79	1083.00
699.91	1073.00
700.03	1093.00
700.15	1091.00
700.27	1038.00
700.39	1092.00
700.51	1038.00
700.63	1090.00
700.75	1048.00
700.87	1082.00
700.99	1086.00
701.11	1099.00
701.24	1066.00
701.36	1132.00
701.48	1123.00
701.60	1098.00
701.72	1065.00
701.84	1171.00
701.96	1117.00
702.08	1105.00
702.20	1176.00
702.32	1123.00
702.44	1140.00
702.56	1069.00
702.68	1068.00
702.80	1089.00
702.92	1176.00
703.04	1142.00
703.16	1100.00
703.28	1098.00
703.40	1097.00
703.52	1099.00
703.64	1100.00
703.76	1099.00
703.88	1092.00
704.00	1085.00
704.12	1088.00
704.24	1163.00
704.36	1108.00
704.48	1108.00
704.60	1033.00
704.72	1069.00
704.84	1097.00
704.96	1100.00
705.07	1114.00
705.19	1066.00
705.31	1089.00
705.43	1112.00
705.55	1088.00
705.67	1120.00
705.79	1108.00
705.91	1016.00
706.03	1081.00
706.15	1092.00
706.27	1097.00
706.39	1081.00
706.51	1060.00
706.63	1074.00
706.75	1122.00
706.87	1099.00
706.99	1161.00
707.11	1105.00
707.23	1087.00
707.35	1117.00
707.47	1094.00
707.59	1141.00
707.71	1134.00
707.83	1052.00
707.95	1098.00
708.07	1083.00
708.19	1220.00
708.31	1115.00
708.43	1077.00
708.55	1119.00
708.67	1152.00
708.79	1106.00
708.91	1152.00
709.03	1119.00
709.15	1159.00
709.27	1071.00
709.39	1104.00
709.51	1098.00
709.63	1126.00
709.75	1110.00
709.87	1040.00
709.99	1141.00
710.11	1089.00
710.23	1086.00
710.35	1046.00
710.47	1218.00
710.58	1193.00
710.70	1168.00
710.82	1159.00
710.94	1117.00
711.06	1124.00
711.18	1098.00
711.30	1090.00
711.42	1155.00
711.54	1118.00
711.66	1112.00
711.78	1084.00
711.90	1147.00
712.02	1178.00
712.14	1073.00
712.26	1053.00
712.38	1179.00
712.50	1185.00
712.62	1094.00
712.74	1104.00
712.86	1106.00
712.98	1149.00
713.10	1067.00
713.22	1056.00
713.34	1130.00
713.45	1088.00
713.57	1122.00
713.69	1040.00
713.81	1094.00
713.93	1118.00
714.05	1099.00
714.17	1072.00
714.29	1180.00
714.41	1152.00
714.53	1073.00
714.65	1125.00
714.77	1120.00
714.89	1064.00
715.01	1163.00
715.13	1076.00
715.25	1104.00
715.37	1068.00
715.49	1059.00
715.61	1130.00
715.72	1123.00
715.84	1163.00
715.96	1095.00
716.08	1090.00
716.20	1195.00
716.32	1157.00
716.44	1115.00
716.56	1092.00
716.68	1115.00
716.80	1227.00
716.92	1161.00
717.04	1134.00
717.16	1157.00
717.28	1117.00
717.40	1096.00
717.52	1119.00
717.63	1077.00
717.75	1097.00
717.87	1106.00
717.99	1128.00
718.11	1109.00
718.23	1194.00
718.35	1124.00
718.47	1119.00
718.59	1076.00
718.71	1130.00
718.83	1093.00
718.95	1143.00
719.07	1062.00
719.19	1092.00
719.30	1093.00
719.42	1124.00
719.54	1097.00
719.66	1139.00
719.78	1097.00
719.90	1044.00
720.02	1134.00
720.14	1137.00
720.26	1142.00
720.38	1144.00
720.50	1101.00
720.62	1045.00
720.74	1109.00
720.85	1095.00
720.97	1193.00
721.09	1221.00
721.21	1119.00
721.33	1175.00
721.45	1137.00
721.57	1137.00
721.69	1087.00
721.81	1049.00
721.93	1188.00
722.05	1146.00
722.16	1078.00
722.28	1059.00
722.40	1102.00
722.52	1169.00
722.64	1168.00
722.76	1091.00
722.88	1155.00
723.00	1161.00
723.12	1104.00
723.24	1118.00
723.36	1047.00
723.47	1142.00
723.59	1119.00
723.71	1119.00
723.83	1144.00
723.95	1110.00
724.07	1122.00
724.19	1138.00
724.31	1206.00
724.43	1069.00
724.55	1030.00
724.66	1080.00
724.78	1252.00
724.90	1101.00
725.02	1061.00
725.14	1085.00
725.26	1135.00
725.38	1062.00
725.50	1098.00
725.62	1120.00
725.74	1132.00
725.85	1116.00
725.97	1122.00
726.09	1179.00
726.21	1452.00
726.33	1173.00
726.45	1101.00
726.57	1084.00
726.69	1132.00
726.81	1121.00
726.92	1104.00
727.04	1125.00
727.16	1141.00
727.28	1104.00
727.40	1094.00
727.52	1117.00
727.64	1238.00
727.76	1206.00
727.88	1132.00
727.99	1082.00
728.11	1089.00
728.23	1119.00
728.35	1094.00
728.47	1096.00
728.59	1110.00
728.71	1145.00
728.83	1146.00
728.94	1149.00
729.06	1225.00
729.18	1196.00
729.30	1144.00
729.42	1125.00
729.54	1240.00
729.66	1239.00
729.78	1127.00
729.90	1149.00
730.01	1095.00
730.13	1045.00
730.25	1114.00
730.37	1100.00
730.49	1156.00
730.61	1176.00
730.73	1125.00
730.84	1154.00
730.96	1157.00
731.08	1153.00
731.20	1142.00
731.32	1129.00
731.44	1294.00
731.56	1131.00
731.68	1081.00
731.79	1142.00
731.91	1119.00
732.03	1122.00
732.15	1115.00
732.27	1099.00
732.39	1110.00
732.51	1173.00
732.62	1104.00
732.74	1122.00
732.86	1181.00
732.98	1152.00
733.10	1118.00
733.22	1134.00
733.34	1156.00
733.45	1066.00
733.57	1100.00
733.69	1073.00
733.81	1110.00
733.93	1150.00
734.05	1042.00
734.17	1120.00
734.28	1138.00
734.40	1122.00
734.52	1095.00
734.64	1104.00
734.76	1197.00
734.88	1146.00
735.00	1079.00
735.11	1126.00
735.23	1178.00
735.35	1123.00
735.47	1054.00
735.59	1161.00
735.71	1131.00
735.83	1133.00
735.94	1118.00
736.06	1129.00
736.18	1188.00
736.30	1178.00
736.42	1151.00
736.54	1137.00
736.65	1173.00
736.77	1295.00
736.89	1174.00
737.01	1120.00
737.13	1233.00
737.25	1089.00
737.36	1097.00
737.48	1108.00
737.60	1143.00
737.72	1107.00
737.84	1120.00
737.96	1172.00
738.08	1123.00
738.19	1239.00
738.31	1119.00
738.43	1109.00
738.55	1131.00
738.67	1160.00
738.79	1116.00
738.90	1117.00
739.02	1160.00
739.14	1126.00
739.26	1115.00
739.38	1133.00
739.50	1142.00
739.61	1149.00
739.73	1121.00
739.85	1137.00
739.97	1184.00
740.09	1219.00
740.20	1110.00
740.32	1134.00
740.44	1162.00
740.56	1094.00
740.68	1106.00
740.80	1140.00
740.91	1132.00
741.03	1184.00
741.15	1162.00
741.27	1113.00
741.39	1198.00
741.51	1145.00
741.62	1169.00
741.74	1120.00
741.86	1127.00
741.98	1116.00
742.10	1127.00
742.21	1157.00
742.33	1155.00
742.45	1098.00
742.57	1176.00
742.69	1118.00
742.80	1182.00
742.92	1119.00
743.04	1119.00
743.16	1089.00
743.28	1225.00
743.40	1102.00
743.51	1116.00
743.63	1119.00
743.75	1169.00
743.87	1153.00
743.99	1158.00
744.10	1124.00
744.22	1134.00
744.34	1123.00
744.46	1139.00
744.58	1138.00
744.69	1055.00
744.81	1152.00
744.93	1086.00
745.05	1100.00
745.17	1230.00
745.28	1218.00
745.40	1141.00
745.52	1117.00
745.64	1151.00
745.76	1176.00
745.87	1121.00
745.99	1109.00
746.11	1157.00
746.23	1100.00
746.35	1144.00
746.46	1115.00
746.58	1242.00
746.70	1123.00
746.82	1142.00
746.94	1129.00
747.05	1108.00
747.17	1081.00
747.29	1059.00
747.41	1122.00
747.53	1257.00
747.64	1140.00
747.76	1200.00
747.88	1190.00
748.00	1201.00
748.12	1166.00
748.23	1129.00
748.35	1139.00
748.47	1171.00
748.59	1178.00
748.70	1098.00
748.82	1086.00
748.94	1108.00
749.06	1119.00
749.18	1140.00
749.29	1074.00
749.41	1153.00
749.53	1148.00
749.65	1110.00
749.76	1161.00
749.88	1144.00
750.00	1151.00
750.12	1180.00
750.24	1145.00
750.35	1122.00
750.47	1076.00
750.59	1147.00
750.71	1128.00
750.82	1184.00
750.94	1115.00
751.06	1109.00
751.18	1102.00
751.30	1173.00
751.41	1153.00
751.53	1148.00
751.65	1106.00
751.77	1114.00
751.88	1153.00
752.00	1178.00
752.12	1083.00
752.24	1196.00
752.35	1187.00
752.47	1172.00
752.59	1186.00
752.71	1266.00
752.83	1146.00
752.94	1173.00
753.06	1086.00
753.18	1148.00
753.30	1124.00
753.41	1060.00
753.53	1109.00
753.65	1121.00
753.77	1204.00
753.88	1102.00
754.00	1127.00
754.12	1151.00
754.24	1214.00
754.35	1097.00
754.47	1077.00
754.59	1191.00
754.71	1182.00
754.82	1124.00
754.94	1100.00
755.06	1194.00
755.18	1163.00
755.29	1149.00
755.41	1115.00
755.53	1163.00
755.65	1117.00
755.76	1146.00
755.88	1123.00
756.00	1205.00
756.12	1128.00
756.23	1037.00
756.35	1083.00
756.47	1160.00
756.59	1118.00
756.70	1098.00
756.82	1086.00
756.94	1121.00
757.06	1175.00
757.17	1140.00
757.29	1111.00
757.41	1060.00
757.53	1142.00
757.64	1115.00
757.76	1117.00
757.88	1168.00
758.00	1168.00
758.11	1110.00
758.23	1072.00
758.35	1146.00
758.47	1090.00
758.58	1159.00
758.70	1089.00
758.82	1115.00
758.94	1069.00
759.05	1125.00
759.17	1059.00
759.29	1123.00
759.40	1197.00
759.52	1111.00
759.64	1102.00
759.76	1139.00
759.87	1148.00
759.99	1140.00
760.11	1109.00
760.23	1128.00
760.34	1166.00
760.46	1137.00
760.58	1111.00
760.70	1130.00
760.81	1161.00
760.93	1126.00
761.05	1162.00
761.16	1141.00
761.28	1132.00
761.40	1094.00
761.52	1088.00
761.63	1194.00
761.75	1152.00
761.87	1118.00
761.98	1080.00
762.10	1152.00
762.22	1132.00
762.34	1177.00
762.45	1114.00
762.57	1164.00
762.69	1267.00
762.81	1097.00
762.92	1126.00
763.04	1061.00
763.16	1161.00
763.27	1171.00
763.39	1086.00
763.51	1147.00
763.63	1165.00
763.74	1095.00
763.86	1053.00
763.98	1096.00
764.09	1126.00
764.21	1114.00
764.33	1079.00
764.44	1084.00
764.56	1134.00
764.68	1097.00
764.80	1130.00
764.91	1051.00
765.03	1178.00
765.15	1113.00
765.26	1108.00
765.38	1089.00
765.50	1153.00
765.62	1121.00
765.73	1110.00
765.85	1132.00
765.97	1083.00
766.08	1123.00
766.20	1134.00
766.32	1137.00
766.43	1165.00
766.55	1160.00
766.67	1102.00
766.79	1108.00
766.90	1078.00
767.02	1026.00
767.14	1063.00
767.25	1087.00
767.37	1226.00
767.49	1122.00
767.60	1081.00
767.72	1178.00
767.84	1142.00
767.95	1075.00
768.07	1085.00
768.19	1139.00
768.31	1158.00
768.42	1124.00
768.54	1095.00
768.66	1124.00
768.77	1158.00
768.89	1124.00
769.01	1078.00
769.12	1149.00
769.24	1126.00
769.36	1081.00
769.47	1054.00
769.59	1068.00
769.71	1149.00
769.82	1113.00
769.94	1109.00
770.06	1056.00
770.17	1139.00
770.29	1105.00
770.41	1118.00
770.53	1138.00
770.64	1074.00
770.76	1102.00
770.88	1121.00
770.99	1133.00
771.11	1064.00
771.23	1106.00
771.34	1093.00
771.46	1185.00
771.58	1169.00
771.69	1141.00
771.81	1105.00
771.93	1157.00
772.04	1105.00
772.16	1136.00
772.28	1103.00
772.39	1163.00
772.51	1106.00
772.63	1134.00
772.74	1102.00
772.86	1097.00
772.98	1239.00
773.09	1099.00
773.21	1068.00
773.33	1132.00
773.44	1150.00
773.56	1097.00
773.68	1077.00
773.79	1154.00
773.91	1098.00
774.03	1104.00
774.14	1092.00
774.26	1178.00
774.38	1085.00
774.49	1045.00
774.61	1121.00
774.73	1124.00
774.84	1095.00
774.96	1063.00
775.08	1104.00
775.19	1124.00
775.31	1157.00
775.43	1095.00
775.54	1056.00
775.66	1067.00
775.77	1159.00
775.89	1065.00
776.01	1136.00
776.12	1131.00
776.24	1105.00
776.36	1058.00
776.47	1072.00
776.59	1096.00
776.71	1153.00
776.82	1012.00
776.94	1057.00
777.06	1058.00
777.17	1163.00
777.29	1054.00
777.41	1049.00
777.52	1130.00
777.64	1123.00
777.75	1105.00
777.87	1034.00
777.99	1076.00
778.10	1148.00
778.22	1074.00
778.34	1088.00
778.45	1090.00
778.57	1146.00
778.69	1135.00
778.80	1071.00
778.92	1203.00
779.04	1084.00
779.15	1073.00
779.27	1141.00
779.38	1132.00
779.50	1150.00
779.62	1037.00
779.73	1070.00
779.85	1012.00
779.97	1204.00
780.08	1096.00
780.20	1094.00
780.31	1119.00
780.43	1125.00
780.55	1083.00
780.66	1091.00
780.78	1110.00
780.90	1219.00
781.01	1053.00
781.13	1084.00
781.25	1080.00
781.36	1153.00
781.48	1061.00
781.59	1066.00
781.71	1121.00
781.83	1121.00
781.94	1043.00
782.06	1054.00
782.18	1137.00
782.29	1081.00
782.41	1040.00
782.52	1148.00
782.64	1170.00
782.76	1093.00
782.87	1112.00
782.99	1073.00
783.10	1223.00
783.22	1236.00
783.34	1088.00
783.45	1086.00
783.57	1082.00
783.69	1072.00
783.80	1096.00
783.92	1108.00
784.03	1060.00
784.15	1070.00
784.27	1061.00
784.38	1055.00
784.50	1077.00
784.61	1092.00
784.73	1075.00
784.85	1054.00
784.96	1055.00
785.08	1141.00
785.19	1117.00
785.31	1074.00
785.43	1037.00
785.54	1033.00
785.66	1094.00
785.77	1088.00
785.89	1123.00
786.01	1017.00
786.12	1080.00
786.24	1077.00
786.35	1125.00
786.47	1085.00
786.59	1056.00
786.70	1040.00
786.82	1098.00
786.93	1081.00
787.05	1084.00
787.17	1087.00
787.28	1049.00
787.40	1097.00
787.51	1109.00
787.63	1094.00
787.75	1038.00
787.86	1106.00
787.98	1104.00
788.09	1073.00
788.21	1105.00
788.33	1108.00
788.44	1084.00
788.56	1050.00
788.67	1100.00
788.79	1059.00
788.91	1056.00
789.02	1032.00
789.14	1058.00
789.25	1162.00
789.37	1106.00
789.48	1045.00
789.60	1090.00
789.72	1033.00
789.83	1110.00
789.95	1077.00
790.06	998.00
790.18	1017.00
790.30	1097.00
790.41	1083.00
790.53	1037.00
790.64	1029.00
790.76	1019.00
790.87	1050.00
790.99	1065.00
791.11	1074.00
791.22	1068.00
791.34	1061.00
791.45	1117.00
791.57	1079.00
791.68	1059.00
791.80	1051.00
791.92	1109.00
792.03	1067.00
792.15	1025.00
792.26	1044.00
792.38	1020.00
792.49	1098.00
792.61	1063.00
792.73	1077.00
792.84	1068.00
792.96	1208.00
793.07	1068.00
793.19	1905.00
793.30	1166.00
793.42	1117.00
793.54	999.00
793.65	1010.00
793.77	1217.00
793.88	1061.00
794.00	1008.00
794.11	1062.00
794.23	1000.00
794.34	1088.00
794.46	1007.00
794.58	1011.00
794.69	1152.00
794.81	1156.00
794.92	1013.00
795.04	1025.00
795.15	1160.00
795.27	1098.00
795.39	1056.00
795.50	1010.00
795.62	1029.00
795.73	1039.00
795.85	1020.00
795.96	1059.00
796.08	1104.00
796.19	1048.00
796.31	1034.00
796.42	1005.00
796.54	1036.00
796.66	1107.00
796.77	1019.00
796.89	1003.00
797.00	1122.00
797.12	984.00
797.23	1025.00
797.35	1059.00
797.46	1084.00
797.58	1114.00
797.69	1066.00
797.81	1041.00
797.93	1037.00
798.04	1036.00
798.16	1017.00
798.27	1066.00
798.39	1017.00
798.50	1005.00
798.62	978.00
798.73	994.00
798.85	1116.00
798.96	1050.00
799.08	1057.00
799.19	1080.00
799.31	1060.00
799.43	1041.00
799.54	1015.00
799.66	1042.00
799.77	1084.00
799.89	999.00
800.00	952.00
800.12	998.00
800.23	1105.00
800.35	1137.00
800.46	982.00
800.58	969.00
800.69	1046.00
800.81	1023.00
800.92	994.00
801.04	1032.00
801.16	979.00
801.27	980.00
801.39	993.00
801.50	1009.00
801.62	1036.00
801.73	1094.00
801.85	1062.00
801.96	1001.00
802.08	1096.00
802.19	1095.00
802.31	1034.00
802.42	1021.00
802.54	1138.00
802.65	1103.00
802.77	996.00
802.88	1064.00
803.00	974.00
803.11	1140.00
803.23	1041.00
803.34	1044.00
803.46	1063.00
803.57	995.00
803.69	1059.00
803.80	978.00
803.92	1088.00
804.03	1011.00
804.15	1018.00
804.26	1048.00
804.38	1081.00
804.50	993.00
804.61	1032.00
804.73	1016.00
804.84	1047.00
804.96	950.00
805.07	999.00
805.19	993.00
805.30	1047.00
805.42	1068.00
805.53	1013.00
805.65	986.00
805.76	978.00
805.88	1020.00
805.99	1030.00
806.11	1036.00
806.22	986.00
806.34	1001.00
806.45	1020.00
806.57	1018.00
806.68	1054.00
806.80	952.00
806.91	977.00
807.03	959.00
807.14	941.00
807.26	963.00
807.37	957.00
807.49	1007.00
807.60	981.00
807.72	1081.00
807.83	1076.00
807.95	1021.00
808.06	1051.00
808.17	1028.00
808.29	1033.00
808.40	962.00
808.52	1002.00
808.63	1017.00
808.75	1013.00
808.86	993.00
808.98	1032.00
809.09	984.00
809.21	988.00
809.32	956.00
809.44	1019.00
809.55	958.00
809.67	997.00
809.78	963.00
809.90	1025.00
810.01	1073.00
810.13	956.00
810.24	1003.00
810.36	939.00
810.47	958.00
810.59	962.00
810.70	997.00
810.82	1030.00
810.93	933.00
811.05	958.00
811.16	944.00
811.27	936.00
811.39	997.00
811.50	1011.00
811.62	926.00
811.73	905.00
811.85	1006.00
811.96	968.00
812.08	995.00
812.19	959.00
812.31	1013.00
812.42	976.00
812.54	945.00
812.65	1004.00
812.77	1013.00
812.88	1005.00
813.00	996.00
813.11	1003.00
813.22	924.00
813.34	934.00
813.45	974.00
813.57	1062.00
813.68	1065.00
813.80	953.00
813.91	925.00
814.03	939.00
814.14	1062.00
814.26	917.00
814.37	940.00
814.49	946.00
814.60	940.00
814.71	935.00
814.83	931.00
814.94	916.00
815.06	929.00
815.17	944.00
815.29	923.00
815.40	917.00
815.52	1051.00
815.63	931.00
815.75	919.00
815.86	984.00
815.97	905.00
816.09	952.00
816.20	958.00
816.32	964.00
816.43	909.00
816.55	953.00
816.66	919.00
816.78	1014.00
816.89	926.00
817.00	912.00
817.12	892.00
817.23	892.00
817.35	988.00
817.46	948.00
817.58	905.00
817.69	1057.00
817.81	940.00
817.92	947.00
818.03	927.00
818.15	928.00
818.26	886.00
818.38	882.00
818.49	908.00
818.61	932.00
818.72	884.00
818.83	2025.00
818.95	1053.00
819.06	897.00
819.18	900.00
819.29	918.00
819.41	918.00
819.52	932.00
819.64	921.00
819.75	870.00
819.86	858.00
819.98	896.00
820.09	944.00
820.21	910.00
820.32	854.00
820.44	929.00
820.55	976.00
820.66	873.00
820.78	918.00
820.89	897.00
821.01	926.00
821.12	890.00
821.23	911.00
821.35	881.00
821.46	965.00
821.58	907.00
821.69	881.00
821.81	868.00
821.92	973.00
822.03	893.00
822.15	902.00
822.26	843.00
822.38	857.00
822.49	894.00
822.61	881.00
822.72	915.00
822.83	954.00
822.95	888.00
823.06	898.00
823.18	952.00
823.29	965.00
823.40	906.00
823.52	867.00
823.63	839.00
823.75	975.00
823.86	881.00
823.97	826.00
824.09	918.00
824.20	830.00
824.32	869.00
824.43	872.00
824.55	924.00
824.66	974.00
824.77	885.00
824.89	888.00
825.00	927.00
825.12	883.00
825.23	898.00
825.34	838.00
825.46	833.00
825.57	912.00
825.69	852.00
825.80	781.00
825.91	842.00
826.03	805.00
826.14	871.00
826.26	823.00
826.37	875.00
826.48	851.00
826.60	855.00
826.71	839.00
826.83	878.00
826.94	909.00
827.05	904.00
827.17	890.00
827.28	862.00
827.39	859.00
827.51	799.00
827.62	838.00
827.74	862.00
827.85	831.00
827.96	828.00
828.08	848.00
828.19	977.00
828.31	846.00
828.42	790.00
828.53	874.00
828.65	909.00
828.76	921.00
828.87	876.00
828.99	812.00
